ax,ay,az,temp
1.41,-0.24,9.21,36.96
1.32,-0.23,9.22,36.98
1.38,-0.2,9.17,36.95
1.37,-0.22,9.3,36.97
1.39,-0.19,9.19,36.97
1.37,-0.24,9.22,36.95
1.32,-0.22,9.22,36.93
1.36,-0.21,9.19,36.98
1.36,-0.25,9.2,36.96
1.39,-0.27,9.15,36.96
1.37,-0.25,9.24,36.98
1.38,-0.2,9.27,37.01
1.4,-0.16,9.22,37.01
1.31,-0.23,9.15,36.96
1.39,-0.23,9.22,36.94
1.36,-0.26,9.16,36.96
1.37,-0.21,9.17,36.98
1.38,-0.25,9.18,36.94
1.37,-0.21,9.2,36.96
1.34,-0.22,9.17,36.97
1.31,-0.24,9.23,36.96
1.33,-0.28,9.21,36.96
1.31,-0.29,9.19,36.97
1.39,-0.27,9.22,36.96
1.38,-0.18,9.2,36.98
1.35,-0.26,9.23,36.97
1.37,-0.23,9.2,36.94
1.39,-0.19,9.24,36.98
1.39,-0.26,9.2,36.99
1.39,-0.23,9.15,36.97
1.34,-0.25,9.23,37.04
1.37,-0.26,9.18,36.98
1.38,-0.24,9.21,36.95
1.39,-0.22,9.17,37.02
1.41,-0.21,9.22,36.97
1.38,-0.2,9.18,36.94
1.35,-0.24,9.14,37.0
1.36,-0.24,9.26,36.98
1.33,-0.21,9.15,37.0
1.36,-0.29,9.24,36.97
1.37,-0.25,9.18,37.0
1.38,-0.23,9.22,36.97
1.38,-0.23,9.15,36.97
1.36,-0.23,9.24,37.0
1.39,-0.25,9.18,36.99
1.37,-0.25,9.17,36.97
1.41,-0.25,9.24,36.99
1.37,-0.19,9.11,37.0
1.39,-0.28,9.16,36.99
1.39,-0.2,9.28,36.96
1.38,-0.25,9.15,37.01
1.33,-0.24,9.16,36.97
1.36,-0.23,9.2,36.97
1.34,-0.2,9.21,37.01
1.36,-0.24,9.24,37.03
1.36,-0.23,9.2,36.99
1.37,-0.26,9.22,36.97
1.4,-0.24,9.2,36.98
1.33,-0.23,9.19,37.0
1.38,-0.22,9.17,36.94
1.38,-0.22,9.25,37.02
1.33,-0.24,9.15,37.01
1.34,-0.22,9.2,36.99
1.36,-0.24,9.21,36.94
1.39,-0.22,9.18,36.99
1.43,-0.23,9.24,37.05
1.38,-0.19,9.13,37.02
1.35,-0.23,9.13,36.97
1.37,-0.19,9.2,36.98
1.34,-0.22,9.21,36.96
1.36,-0.23,9.24,36.96
1.33,-0.24,9.19,36.97
1.4,-0.24,9.2,36.99
1.35,-0.24,9.25,36.96
1.37,-0.22,9.18,36.96
1.37,-0.24,9.29,36.99
1.33,-0.24,9.15,36.99
1.34,-0.22,9.26,36.99
1.33,-0.2,9.16,36.97
1.38,-0.19,9.19,36.96
1.38,-0.23,9.22,36.97
1.38,-0.23,9.2,36.99
1.33,-0.2,9.23,36.97
1.37,-0.19,9.22,37.03
1.37,-0.27,9.18,37.02
1.38,-0.25,9.15,36.98
1.4,-0.25,9.21,37.01
1.42,-0.25,9.25,37.0
1.33,-0.25,9.25,36.98
1.38,-0.25,9.19,37.03
1.36,-0.23,9.21,36.98
1.36,-0.23,9.23,37.0
1.35,-0.2,9.22,36.99
1.42,-0.19,9.17,37.0
1.35,-0.24,9.2,37.03
1.36,-0.21,9.22,37.02
1.4,-0.25,9.17,37.01
1.34,-0.27,9.23,37.06
1.4,-0.26,9.21,36.99
1.4,-0.27,9.23,37.05
1.34,-0.23,9.22,37.01
1.34,-0.23,9.2,37.04
1.39,-0.22,9.18,36.97
1.37,-0.19,9.29,37.03
1.4,-0.28,9.17,36.97
1.34,-0.24,9.17,36.95
1.42,-0.24,9.2,37.04
1.38,-0.24,9.25,36.98
1.37,-0.22,9.21,37.04
1.34,-0.26,9.19,37.0
1.43,-0.23,9.19,36.98
1.41,-0.25,9.25,37.02
1.38,-0.24,9.16,37.0
1.37,-0.24,9.17,37.02
1.34,-0.25,9.2,37.01
1.39,-0.22,9.18,36.99
1.35,-0.23,9.22,37.0
1.36,-0.23,9.19,37.0
1.35,-0.3,9.23,37.0
1.38,-0.28,9.18,37.02
1.34,-0.27,9.26,37.03
1.41,-0.23,9.27,36.98
1.36,-0.25,9.22,37.0
1.34,-0.27,9.14,37.0
1.36,-0.23,9.21,36.96
1.34,-0.26,9.26,37.02
1.35,-0.23,9.18,37.03
1.36,-0.25,9.19,36.98
1.39,-0.22,9.21,37.03
1.37,-0.23,9.21,37.02
1.42,-0.25,9.23,36.97
1.35,-0.23,9.19,37.01
1.35,-0.25,9.21,37.01
1.35,-0.23,9.22,37.01
1.36,-0.18,9.12,37.03
1.38,-0.24,9.21,37.04
1.36,-0.23,9.24,37.01
1.34,-0.24,9.19,36.99
1.38,-0.22,9.14,36.99
1.41,-0.23,9.22,37.01
1.37,-0.23,9.25,37.03
1.37,-0.25,9.19,36.99
1.33,-0.25,9.2,36.97
1.39,-0.25,9.19,37.0
1.34,-0.26,9.09,37.07
1.35,-0.26,9.2,37.02
1.36,-0.22,9.13,37.01
1.38,-0.27,9.25,36.99
1.44,-0.24,9.14,37.01
1.34,-0.26,9.26,37.02
1.4,-0.2,9.12,36.99
1.39,-0.23,9.2,37.02
1.36,-0.31,9.26,37.0
1.41,-0.18,9.21,37.02
1.39,-0.27,9.25,37.0
1.44,-0.24,9.18,37.0
1.32,-0.25,9.21,37.0
1.39,-0.2,9.2,37.01
1.37,-0.24,9.19,36.98
1.35,-0.3,9.16,37.03
1.35,-0.24,9.18,37.01
1.39,-0.23,9.25,37.04
1.36,-0.23,9.14,37.06
1.4,-0.21,9.2,36.99
1.37,-0.24,9.22,36.97
1.37,-0.25,9.24,37.05
1.39,-0.25,9.22,37.03
1.38,-0.25,9.16,37.06
1.43,-0.29,9.21,37.02
1.37,-0.26,9.19,37.02
1.37,-0.18,9.22,37.02
1.4,-0.23,9.22,37.03
1.36,-0.18,9.19,37.02
1.3,-0.2,9.22,37.01
1.39,-0.22,9.24,37.02
1.33,-0.24,9.22,36.98
1.37,-0.29,9.24,37.03
1.34,-0.22,9.19,37.02
1.39,-0.22,9.29,36.99
1.38,-0.23,9.16,36.99
1.42,-0.25,9.15,37.04
1.38,-0.24,9.28,37.01
1.37,-0.22,9.18,36.98
1.37,-0.25,9.22,37.03
1.36,-0.19,9.2,37.02
1.38,-0.25,9.14,37.04
1.4,-0.27,9.19,37.05
1.34,-0.24,9.11,37.0
1.39,-0.25,9.19,37.05
1.35,-0.26,9.17,37.04
1.32,-0.24,9.2,37.01
1.37,-0.26,9.25,37.0
1.41,-0.23,9.27,37.03
1.33,-0.23,9.23,37.08
1.4,-0.2,9.24,37.05
1.37,-0.21,9.17,37.09
1.37,-0.23,9.22,37.03
1.38,-0.24,9.18,37.03
1.35,-0.26,9.29,37.06
1.4,-0.24,9.27,37.04
1.37,-0.27,9.22,37.03
1.36,-0.24,9.23,37.01
1.38,-0.26,9.24,37.06
1.34,-0.24,9.26,37.03
1.39,-0.2,9.11,37.03
1.38,-0.27,9.2,37.06
1.37,-0.23,9.2,37.04
1.34,-0.3,9.22,36.99
1.36,-0.2,9.19,37.05
1.37,-0.22,9.2,37.01
1.39,-0.25,9.23,37.02
1.36,-0.26,9.21,37.04
1.38,-0.25,9.19,37.04
1.4,-0.28,9.17,37.06
1.42,-0.25,9.27,37.03
1.36,-0.27,9.2,37.03
1.37,-0.29,9.22,37.07
1.37,-0.22,9.21,37.03
1.36,-0.22,9.15,37.04
1.39,-0.22,9.22,37.07
1.37,-0.27,9.22,37.04
1.4,-0.23,9.23,37.06
1.38,-0.27,9.25,37.05
1.39,-0.26,9.25,37.04
1.37,-0.23,9.18,37.05
1.36,-0.26,9.17,37.08
1.34,-0.19,9.14,37.01
1.37,-0.27,9.26,37.06
1.31,-0.28,9.24,37.06
1.37,-0.22,9.15,37.07
1.33,-0.31,9.31,37.04
1.41,-0.2,9.21,37.03
1.36,-0.26,9.29,37.04
1.43,-0.19,9.12,37.05
1.36,-0.27,9.2,37.03
1.37,-0.2,9.17,37.04
1.37,-0.26,9.24,37.04
1.4,-0.21,9.21,37.03
1.39,-0.26,9.21,37.06
1.39,-0.21,9.16,37.04
1.35,-0.28,9.23,37.05
1.37,-0.24,9.2,37.09
1.37,-0.24,9.23,37.05
1.39,-0.21,9.17,37.02
1.31,-0.22,9.21,37.03
1.36,-0.27,9.21,37.07
1.35,-0.18,9.26,37.01
1.37,-0.24,9.17,37.05
1.37,-0.19,9.21,37.07
1.38,-0.27,9.24,37.1
1.37,-0.23,9.17,37.04
1.37,-0.23,9.16,37.05
1.35,-0.23,9.2,37.01
1.36,-0.23,9.21,37.05
1.32,-0.23,9.25,37.02
1.36,-0.25,9.22,37.04
1.36,-0.24,9.21,37.06
1.37,-0.27,9.17,37.07
1.39,-0.21,9.21,37.08
1.4,-0.27,9.22,36.99
1.38,-0.27,9.2,37.09
1.36,-0.24,9.25,37.06
1.4,-0.22,9.25,37.04
1.37,-0.25,9.22,37.01
1.37,-0.22,9.2,37.02
1.32,-0.21,9.2,37.08
1.39,-0.28,9.21,37.04
1.4,-0.29,9.16,37.06
1.47,-0.26,9.41,37.05
1.5,-0.06,9.42,37.05
1.96,-0.52,10.12,37.06
1.42,0.14,8.77,37.04
0.89,0.15,9.2,37.01
1.51,0.2,9.21,37.07
1.51,-0.41,9.09,37.08
0.92,-0.11,8.68,37.04
1.11,-0.23,8.98,37.07
0.91,0.18,8.63,37.04
1.1,-0.05,9.01,37.06
0.89,-0.5,9.1,37.03
1.3,-0.83,9.39,37.06
1.14,-0.72,9.47,37.06
1.31,-0.53,9.48,37.07
1.35,-0.61,9.67,37.07
1.37,-0.76,9.67,37.08
1.47,-0.93,9.68,37.06
1.49,-0.78,9.49,37.07
1.49,-0.64,9.49,37.07
1.48,-0.17,9.17,37.09
1.43,-0.15,9.04,37.11
1.38,-0.23,8.97,37.08
1.59,-0.21,8.76,37.06
1.59,-0.26,8.84,37.09
1.65,-0.0,8.8,37.04
1.65,0.19,8.76,37.09
1.6,0.12,8.96,37.09
1.45,-0.02,9.16,37.08
1.56,-0.26,9.36,37.09
1.69,-0.05,9.35,37.08
1.65,-0.05,9.46,37.08
1.52,0.05,9.5,37.06
1.4,0.04,9.44,37.05
1.36,-0.18,9.39,37.07
1.29,-0.21,9.39,37.12
1.27,-0.02,9.11,37.02
1.26,-0.07,9.18,37.08
1.22,0.13,8.95,37.11
1.09,0.02,8.94,37.05
1.12,-0.11,8.99,37.09
1.02,-0.22,8.94,37.06
1.11,-0.28,9.01,37.13
1.18,-0.25,9.03,37.07
1.15,-0.18,9.12,37.06
1.19,-0.33,9.29,37.08
1.17,-0.55,9.41,37.06
1.27,-0.61,9.46,37.11
1.38,-0.66,9.51,37.09
1.41,-0.49,9.4,37.06
1.43,-0.42,9.28,37.06
1.34,-0.5,9.24,37.11
1.5,-0.54,9.24,37.09
1.47,-0.27,9.0,37.05
1.53,-0.24,9.05,37.07
1.5,-0.08,8.96,37.11
1.41,-0.11,8.88,37.05
1.43,-0.23,9.06,37.09
1.44,-0.16,9.1,37.06
1.49,-0.21,9.26,37.07
1.53,-0.09,9.22,37.07
1.43,-0.14,9.31,37.05
1.51,-0.24,9.39,37.09
1.55,-0.25,9.35,37.09
1.5,-0.27,9.36,37.04
1.5,-0.3,9.45,37.04
1.47,-0.1,9.17,37.04
1.49,-0.17,9.12,37.04
1.48,-0.25,9.16,37.12
1.43,-0.18,9.08,37.09
1.44,-0.14,9.02,37.04
1.3,-0.12,8.98,37.09
1.36,-0.08,8.94,37.03
1.36,-0.12,9.18,37.09
1.24,-0.18,9.04,37.06
1.28,-0.27,9.18,37.07
1.26,-0.31,9.31,37.04
1.26,-0.26,9.26,37.09
1.24,-0.32,9.44,37.07
1.23,-0.32,9.36,37.04
1.23,-0.33,9.3,37.08
1.26,-0.51,9.41,37.03
1.19,-0.21,9.17,37.07
1.15,-0.3,9.39,37.08
1.23,-0.17,9.14,37.07
1.28,-0.22,9.1,37.08
1.3,-0.22,9.11,37.06
1.32,-0.21,9.09,37.06
1.34,-0.2,9.14,37.08
1.37,-0.07,9.03,37.08
1.58,-0.28,9.28,37.07
1.53,-0.28,9.2,37.08
1.56,-0.23,9.26,37.06
1.58,-0.25,9.34,37.05
1.57,-0.24,9.14,37.07
1.55,-0.3,9.18,37.08
1.6,-0.23,9.11,37.13
1.55,-0.2,9.14,37.1
1.53,-0.25,9.11,37.1
1.5,-0.22,9.08,37.08
1.47,-0.28,9.12,37.1
1.42,-0.25,9.06,37.08
1.47,-0.33,9.19,37.1
1.41,-0.32,9.21,37.13
1.34,-0.24,9.11,37.09
1.34,-0.33,9.29,37.07
1.34,-0.33,9.24,37.09
1.29,-0.35,9.35,37.1
1.27,-0.36,9.24,37.08
1.25,-0.29,9.23,37.09
1.28,-0.27,9.24,37.1
1.28,-0.25,9.2,37.1
1.23,-0.28,9.21,37.05
1.26,-0.21,9.16,37.09
1.23,-0.18,9.14,37.09
1.27,-0.16,9.05,37.11
1.3,-0.14,9.21,37.1
1.3,-0.24,9.15,37.05
1.28,-0.16,9.2,37.12
1.34,-0.17,9.22,37.1
1.31,-0.12,9.19,37.05
1.41,-0.12,9.28,37.09
1.36,-0.09,9.32,37.04
1.39,-0.15,9.24,37.09
1.41,-0.19,9.24,37.11
1.43,-0.13,9.22,37.07
1.42,-0.12,9.22,37.11
1.41,-0.18,9.18,37.15
1.44,-0.2,9.15,37.09
1.37,-0.19,9.12,37.1
1.43,-0.2,9.12,37.06
1.47,-0.28,9.11,37.1
1.41,-0.31,9.22,37.09
1.45,-0.36,9.21,37.08
1.4,-0.34,9.22,37.05
1.47,-0.37,9.23,37.08
1.49,-0.43,9.28,37.13
1.44,-0.37,9.27,37.1
1.45,-0.37,9.26,37.12
1.43,-0.34,9.22,37.07
1.43,-0.36,9.19,37.11
1.4,-0.36,9.23,37.07
1.42,-0.34,9.15,37.08
1.38,-0.39,9.17,37.12
1.39,-0.32,9.11,37.08
1.38,-0.32,9.17,37.07
1.34,-0.37,9.15,37.12
1.36,-0.25,9.14,37.05
1.35,-0.29,9.23,37.09
1.35,-0.23,9.25,37.1
1.39,-0.28,9.28,37.09
1.36,-0.26,9.18,37.09
1.37,-0.21,9.22,37.08
1.39,-0.24,9.2,37.12
1.37,-0.18,9.23,37.14
1.36,-0.16,9.25,37.12
1.38,-0.17,9.23,37.12
1.38,-0.14,9.13,37.12
1.41,-0.11,9.2,37.11
1.36,-0.08,9.12,37.12
1.4,-0.05,9.18,37.11
1.39,-0.13,9.14,37.09
1.36,-0.08,9.14,37.12
1.36,-0.15,9.16,37.06
1.39,-0.11,9.21,37.11
1.38,-0.17,9.19,37.11
1.36,-0.18,9.25,37.12
1.36,-0.25,9.24,37.09
1.34,-0.21,9.27,37.13
1.34,-0.25,9.23,37.07
1.34,-0.27,9.27,37.12
1.37,-0.31,9.22,37.1
1.37,-0.34,9.15,37.11
1.34,-0.28,9.13,37.14
1.45,-0.35,9.14,37.13
1.42,-0.33,9.18,37.11
1.44,-0.36,9.18,37.12
1.44,-0.45,9.25,37.1
1.4,-0.33,9.15,37.08
1.45,-0.4,9.23,37.12
1.47,-0.35,9.22,37.15
1.41,-0.44,9.27,37.12
1.47,-0.38,9.24,37.12
1.36,-0.34,9.2,37.12
1.41,-0.4,9.29,37.13
1.42,-0.31,9.23,37.14
1.37,-0.32,9.22,37.09
1.38,-0.26,9.14,37.09
1.41,-0.23,9.21,37.12
1.37,-0.24,9.2,37.12
1.38,-0.16,9.18,37.12
1.4,-0.22,9.15,37.12
1.41,-0.16,9.11,37.12
1.39,-0.08,9.12,37.13
1.36,-0.13,9.13,37.09
1.38,-0.11,9.14,37.12
1.38,-0.14,9.26,37.14
1.39,-0.01,9.24,37.13
1.32,-0.11,9.25,37.15
1.35,-0.06,9.17,37.09
1.31,-0.17,9.2,37.12
1.28,-0.15,9.21,37.13
1.34,-0.16,9.13,37.14
1.31,-0.2,9.16,37.12
1.27,-0.2,9.06,37.11
1.43,-0.22,9.34,37.16
1.41,-0.18,9.11,37.12
1.47,-0.34,9.26,37.12
1.44,-0.27,9.28,37.12
1.38,-0.3,9.14,37.1
1.43,-0.41,9.27,37.12
1.28,-0.34,9.22,37.16
1.34,-0.37,9.24,37.12
1.3,-0.45,9.34,37.06
1.28,-0.29,9.13,37.1
1.31,-0.41,9.31,37.12
1.33,-0.35,9.24,37.13
1.31,-0.39,9.17,37.11
1.38,-0.37,9.3,37.1
1.29,-0.38,9.13,37.14
1.43,-0.38,9.25,37.12
1.43,-0.35,9.11,37.16
1.36,-0.31,9.16,37.13
1.47,-0.29,9.16,37.13
1.39,-0.33,9.19,37.17
1.47,-0.27,9.28,37.11
1.45,-0.31,9.13,37.14
1.52,-0.23,9.17,37.14
1.48,-0.26,9.29,37.12
1.41,-0.17,9.18,37.14
1.49,-0.2,9.17,37.1
1.47,-0.13,9.21,37.17
1.4,-0.06,9.11,37.11
1.45,-0.05,9.17,37.1
1.33,-0.05,9.11,37.14
1.44,-0.06,9.24,37.15
1.37,-0.07,9.18,37.09
1.31,0.0,9.16,37.14
1.36,-0.02,9.15,37.15
1.38,-0.13,9.15,37.13
1.34,-0.18,9.17,37.13
1.46,-0.19,9.29,37.12
1.33,-0.11,9.28,37.13
1.32,-0.11,9.18,37.13
1.36,-0.06,9.23,37.12
1.34,-0.24,9.18,37.12
1.28,-0.36,9.26,37.11
1.29,-0.37,9.25,37.15
1.22,-0.32,9.17,37.15
1.19,-0.37,9.14,37.14
1.23,-0.52,9.28,37.11
1.28,-0.65,9.28,37.12
1.29,-0.58,9.23,37.17
1.28,-0.53,9.24,37.16
1.31,-0.39,9.18,37.16
1.33,-0.39,9.23,37.12
1.36,-0.47,9.29,37.11
1.38,-0.4,9.28,37.14
1.39,-0.35,9.25,37.12
1.44,-0.3,9.15,37.15
1.46,-0.35,9.2,37.17
1.47,-0.24,9.18,37.14
1.43,-0.32,9.13,37.12
1.54,-0.42,9.17,37.17
1.49,-0.25,9.11,37.14
1.56,-0.28,9.22,37.12
1.52,-0.11,9.18,37.14
1.51,-0.19,9.2,37.13
1.58,-0.21,9.19,37.12
1.5,-0.17,9.19,37.11
1.52,-0.26,9.29,37.12
1.5,-0.09,9.17,37.16
1.43,-0.06,9.16,37.13
1.41,0.03,9.21,37.15
1.38,-0.08,9.29,37.19
1.29,-0.06,9.18,37.17
1.36,-0.04,9.12,37.16
1.32,0.06,9.05,37.14
1.25,0.05,9.07,37.11
1.27,-0.08,9.11,37.17
1.27,-0.09,9.15,37.17
1.37,-0.2,9.18,37.12
1.33,-0.18,9.14,37.15
1.32,-0.2,9.15,37.16
1.15,-0.41,9.43,37.15
1.11,-0.08,8.92,37.15
1.58,-0.39,8.69,37.1
0.88,-0.56,8.13,37.13
-2.95,-0.78,11.02,37.19
-0.14,1.35,8.84,37.15
1.07,-1.23,9.89,37.14
1.76,0.02,7.83,37.14
2.55,-1.27,10.75,37.15
0.31,-0.01,8.24,37.15
0.05,-0.07,9.92,37.14
1.23,1.05,8.57,37.18
4.49,-0.53,18.37,37.12
2.62,-0.25,9.87,37.19
3.56,-0.53,9.7,37.17
4.14,-1.06,8.77,37.18
0.62,-0.37,8.44,37.22
-1.39,-0.12,9.34,37.14
0.79,-0.51,10.16,37.16
3.48,-0.6,9.82,37.17
3.79,-0.63,8.75,37.19
0.03,0.04,7.87,37.11
-1.77,0.38,8.65,37.16
0.57,-0.33,10.1,37.16
3.78,-0.81,10.09,37.19
4.2,-0.93,8.95,37.15
0.27,-0.02,8.51,37.2
-1.24,0.7,8.89,37.22
0.71,-0.09,9.96,37.16
3.61,-0.49,9.79,37.19
3.83,-0.49,8.8,37.17
-0.3,0.17,8.47,37.18
-1.54,0.77,9.28,37.2
1.22,-0.14,9.91,37.18
3.81,-0.59,9.39,37.18
3.97,-0.52,8.47,37.21
-0.29,0.68,8.17,37.17
-1.26,0.18,9.37,37.17
1.07,-0.44,10.36,37.18
4.24,-1.12,10.21,37.16
4.18,-0.68,8.69,37.15
-0.37,0.66,7.97,37.19
-1.74,0.54,8.65,37.16
1.21,-0.22,10.03,37.18
4.28,-0.61,9.65,37.18
4.01,-0.96,8.61,37.16
-0.66,-0.11,8.34,37.15
-1.39,0.26,9.31,37.17
1.54,-0.47,10.34,37.24
4.67,-0.64,9.52,37.2
3.7,-0.92,8.4,37.16
-0.79,-0.25,8.31,37.2
-1.29,-0.04,9.71,37.18
0.95,-0.61,10.61,37.19
4.94,-1.03,9.45,37.16
4.53,-1.2,9.14,37.19
0.76,-0.29,8.04,37.18
-2.25,0.09,9.31,37.21
0.57,0.1,9.98,37.17
3.7,-0.72,9.84,37.21
4.36,-0.6,8.56,37.19
0.66,0.0,8.02,37.18
-1.74,0.37,9.15,37.18
0.72,-0.28,10.57,37.22
3.93,-0.97,10.18,37.2
4.53,-0.62,8.6,37.21
0.45,0.77,7.42,37.21
-2.11,0.81,8.68,37.21
0.47,0.12,9.91,37.15
4.12,-1.02,10.07,37.17
4.75,-0.53,8.46,37.23
-0.06,-0.02,8.35,37.16
-1.94,0.71,9.11,37.16
4.37,-0.96,10.09,37.19
4.88,-0.91,9.51,37.19
2.58,-0.09,7.46,37.22
-2.4,0.87,7.97,37.24
-1.06,-0.03,9.44,37.14
2.38,-0.6,10.5,37.19
4.98,-1.26,9.19,37.2
2.3,-0.39,7.91,37.26
-2.0,-0.51,9.08,37.2
-1.33,0.01,9.78,37.18
0.44,-0.35,10.58,37.22
3.67,-0.81,9.83,37.23
4.0,-0.56,8.2,37.19
0.6,0.08,7.64,37.22
-2.75,0.16,8.66,37.19
1.23,-0.26,10.88,37.22
4.5,-1.63,10.59,37.21
4.59,-0.56,8.71,37.21
0.41,-0.56,7.95,37.19
-2.89,0.54,9.12,37.2
1.07,-0.17,10.63,37.21
4.24,-0.64,9.17,37.19
4.81,-0.34,8.4,37.22
-0.28,0.16,7.79,37.21
-1.92,0.38,9.34,37.21
1.07,-0.85,11.51,37.19
4.73,-0.8,9.74,37.23
4.15,-0.71,8.92,37.21
-0.34,0.43,7.32,37.19
-2.58,0.75,9.11,37.23
1.27,-0.57,10.49,37.2
4.49,-0.43,9.22,37.17
4.32,-0.57,8.66,37.24
-0.69,0.15,7.81,37.19
-2.16,0.17,10.33,37.2
1.48,-0.63,10.79,37.27
4.24,-0.66,10.04,37.19
4.13,-0.69,8.06,37.19
-1.56,0.84,7.21,37.19
-2.56,0.05,9.16,37.19
-2.64,-1.05,9.58,37.2
-1.47,0.82,7.66,37.19
-2.01,-1.0,11.62,37.19
4.12,0.45,8.71,37.23
3.81,-1.41,9.9,37.23
2.63,1.16,6.06,37.18
-3.74,-1.22,10.32,37.2
0.88,0.58,8.9,37.23
2.78,-2.13,12.61,37.2
5.23,-0.03,8.28,37.2
1.79,-0.9,8.09,37.22
-2.87,0.09,8.93,37.22
-0.56,0.11,9.79,37.18
2.89,-1.03,10.68,37.21
4.22,0.76,7.26,37.21
1.7,-0.93,8.32,37.21
-2.74,1.05,8.2,37.13
1.2,-0.75,10.47,37.19
3.03,-1.27,11.35,37.26
2.29,-0.1,10.12,37.16
6.22,-0.45,8.57,37.21
1.0,-0.62,8.42,37.21
-0.81,1.04,7.38,37.19
-1.25,-1.36,12.07,37.23
3.03,0.02,9.61,37.19
5.64,-1.89,10.32,37.2
0.8,0.45,6.94,37.2
-2.34,0.82,7.91,37.23
-1.09,-0.33,10.93,37.18
3.79,0.57,9.2,37.17
4.43,-1.57,9.91,37.19
2.34,0.6,6.02,37.23
-2.09,-0.84,9.73,37.21
-0.96,0.35,10.14,37.2
4.73,-1.31,11.35,37.24
3.99,-1.03,9.54,37.2
2.16,1.27,5.66,37.2
-3.28,-1.69,10.58,37.2
-0.39,1.38,8.68,37.21
3.22,-1.58,11.44,37.22
4.0,0.54,7.59,37.24
2.02,-0.06,7.37,37.22
-2.34,-0.61,9.37,37.19
0.63,0.06,9.91,37.14
3.13,-1.55,11.83,37.22
4.88,0.02,7.94,37.18
1.28,-0.98,8.81,37.23
-3.32,0.11,8.8,37.19
1.66,0.23,10.13,37.2
1.82,-1.27,11.01,37.26
5.94,1.57,6.64,37.25
0.28,-1.27,8.82,37.22
-2.32,1.6,6.99,37.2
1.27,-1.3,11.06,37.24
1.26,-0.31,10.43,37.23
6.12,-0.71,9.59,37.19
3.07,-1.0,8.53,37.25
-0.9,0.67,7.41,37.24
3.72,-0.73,10.5,37.22
4.07,-1.23,11.17,37.23
4.43,-0.25,7.77,37.24
-1.63,0.43,7.41,37.21
-0.96,-0.5,9.87,37.22
-0.08,-0.07,10.77,37.22
4.91,0.21,8.79,37.23
4.54,-0.65,7.92,37.21
-1.65,-1.0,8.82,37.2
-1.19,0.8,8.05,37.2
2.6,-1.31,11.16,37.2
3.46,-1.56,11.17,37.2
3.73,1.42,5.77,37.24
0.74,-1.55,9.83,37.19
-3.11,-0.97,10.36,37.23
1.7,1.67,9.01,37.18
5.34,-2.47,11.37,37.2
0.96,0.17,7.33,37.22
-0.98,1.97,5.53,37.19
-0.12,-1.61,11.05,37.24
4.72,-2.09,9.86,37.21
-3.0,0.17,7.64,37.22
-0.53,0.38,9.04,37.23
3.58,-1.61,11.92,37.21
2.62,-0.4,10.18,37.2
3.58,0.43,6.97,37.23
0.02,-0.84,8.86,37.21
-3.28,-0.3,10.57,37.2
1.64,0.91,9.3,37.2
5.53,-0.65,10.04,37.22
2.41,-0.35,7.66,37.22
-2.0,1.46,6.36,37.17
1.05,-0.78,9.95,37.22
1.75,-0.98,11.39,37.22
3.58,0.32,8.28,37.24
5.5,-0.23,8.07,37.21
-1.02,-1.57,10.01,37.24
-2.29,0.37,9.19,37.22
4.02,-0.06,10.15,37.22
3.69,-1.32,10.88,37.24
3.89,-0.73,7.6,37.24
0.9,-1.58,7.75,37.29
-2.1,1.35,9.21,37.24
0.74,0.12,11.63,37.25
2.63,-1.07,9.0,37.26
3.87,-0.98,7.32,37.32
-0.23,-1.26,8.11,37.29
0.23,0.77,9.73,37.29
2.18,0.18,10.39,37.28
3.67,-0.17,8.75,37.25
5.24,-1.3,8.16,37.24
1.18,-1.46,8.34,37.26
-0.84,1.02,9.27,37.29
1.71,0.74,10.54,37.31
4.98,-1.41,8.85,37.26
4.27,-0.97,7.39,37.27
0.9,-0.89,8.13,37.31
-0.16,1.32,9.45,37.27
2.67,-0.08,11.03,37.26
5.21,-0.78,8.72,37.29
3.64,-1.54,8.15,37.26
-0.43,-0.93,9.84,37.24
-2.2,1.45,9.23,37.28
2.57,-0.66,11.8,37.24
4.1,-0.74,8.82,37.29
4.66,-1.23,7.43,37.29
-0.13,-0.81,10.04,37.32
-1.18,0.62,9.77,37.26
0.72,0.81,10.86,37.31
3.71,0.82,9.2,37.28
3.74,-1.09,7.2,37.3
2.39,-0.71,8.18,37.28
0.46,0.17,9.41,37.24
0.18,0.84,10.05,37.28
3.12,0.1,8.87,37.32
4.45,-1.33,8.32,37.26
0.62,-0.87,8.11,37.29
-2.63,-0.31,9.31,37.28
-1.46,0.32,11.33,37.29
2.13,-0.14,10.29,37.27
3.7,-1.39,9.47,37.3
4.25,-1.13,8.84,37.27
3.66,-0.87,6.25,37.31
-1.48,0.74,9.04,37.24
-1.18,1.44,10.34,37.27
2.95,-0.72,10.04,37.33
4.6,-1.33,8.02,37.29
2.4,-1.65,6.68,37.29
-1.68,1.38,8.71,37.28
-0.63,0.15,10.22,37.27
4.21,-0.27,10.19,37.25
4.23,-1.83,8.21,37.28
2.95,-0.64,7.01,37.28
0.53,-0.71,9.55,37.27
0.78,1.32,8.96,37.3
5.53,0.04,9.77,37.26
6.04,-1.49,8.17,37.32
2.84,-0.66,6.83,37.31
-0.21,-0.29,9.74,37.29
2.55,0.44,10.53,37.27
4.86,-0.5,10.24,37.28
6.02,-2.12,7.82,37.26
2.55,-1.16,7.52,37.28
-0.31,0.71,9.28,37.25
3.08,0.8,10.45,37.23
2.89,-0.02,10.19,37.29
6.59,-1.23,7.56,37.28
2.87,-1.2,7.82,37.3
-0.92,0.22,10.14,37.29
0.92,1.69,10.4,37.28
4.45,-0.45,10.41,37.26
5.52,-2.28,7.19,37.32
0.2,-0.31,7.97,37.29
-0.99,-0.51,10.62,37.29
0.35,0.88,10.64,37.3
3.16,-0.27,9.68,37.26
4.34,-3.57,8.54,37.27
-0.72,-0.36,8.03,37.28
-1.96,-0.49,10.7,37.27
3.88,-0.43,9.56,37.27
4.03,-2.94,8.55,37.28
-1.6,-0.63,8.22,37.25
-2.18,0.51,10.64,37.27
0.56,0.88,10.72,37.29
3.86,-0.06,10.21,37.28
6.61,-2.51,7.84,37.31
1.85,-0.82,6.79,37.28
-2.17,-0.18,11.1,37.28
0.82,1.03,10.76,37.31
5.85,-0.7,10.12,37.26
6.77,-2.32,7.36,37.31
-0.38,-0.79,7.69,37.31
-1.19,0.45,10.97,37.29
1.23,0.34,10.33,37.28
2.52,0.18,8.57,37.27
4.44,-1.58,7.26,37.3
-1.94,-1.15,8.99,37.29
-4.82,0.45,10.92,37.26
-0.7,-0.23,11.05,37.25
1.28,-0.34,9.86,37.26
2.66,-1.36,8.14,37.31
-2.29,-0.46,8.45,37.27
-5.06,0.79,11.3,37.3
-1.23,0.21,10.81,37.29
2.81,0.5,8.94,37.27
3.84,-1.67,7.9,37.24
-2.23,0.13,7.5,37.33
-4.58,0.2,9.74,37.29
0.54,-0.56,11.72,37.29
4.2,-0.08,6.94,37.3
4.3,-0.82,7.22,37.28
2.19,-1.19,7.93,37.29
-2.17,1.07,9.31,37.26
-2.38,0.0,9.95,37.31
1.74,0.85,9.04,37.28
2.31,-1.07,8.97,37.26
2.0,-1.62,8.11,37.3
-3.06,-0.26,8.95,37.27
3.21,-1.06,10.98,37.3
4.29,-1.1,9.46,37.3
5.47,-2.14,7.23,37.27
0.8,-0.54,8.14,37.25
-2.18,1.33,9.96,37.27
4.31,0.33,11.36,37.26
6.17,-2.8,9.76,37.29
4.5,-0.09,5.83,37.3
2.37,-0.25,7.39,37.28
0.82,0.18,9.93,37.29
2.56,1.56,9.16,37.26
5.7,-1.01,8.41,37.24
5.55,-1.25,6.67,37.28
-1.0,0.5,7.39,37.32
0.81,1.06,8.83,37.3
2.9,0.31,10.81,37.27
4.04,-0.36,7.65,37.32
3.73,-1.87,7.66,37.29
-0.28,-0.4,8.45,37.25
-0.46,0.63,9.6,37.28
0.45,0.31,10.35,37.28
2.15,0.07,9.96,37.31
3.46,-1.32,7.9,37.23
-0.66,-1.45,8.37,37.33
-4.74,0.43,9.95,37.3
0.2,-0.73,11.17,37.28
2.27,-0.37,11.01,37.31
5.59,-1.37,6.99,37.28
-0.65,-2.12,8.68,37.26
-4.33,0.4,10.68,37.27
0.61,0.33,11.42,37.27
2.14,-0.08,10.36,37.31
3.85,-1.66,7.15,37.27
-0.98,-1.41,8.36,37.27
-4.18,0.28,10.98,37.3
0.52,0.15,10.92,37.3
2.02,0.9,8.63,37.27
4.25,-1.79,8.06,37.27
-1.39,-1.59,8.14,37.3
-2.85,0.72,10.33,37.25
-0.32,0.1,11.2,37.26
3.64,0.65,8.75,37.32
6.28,-1.47,7.72,37.26
-0.08,-1.19,7.39,37.29
-1.95,1.41,10.11,37.31
-0.63,0.19,11.47,37.29
3.66,0.91,7.98,37.23
6.32,-1.57,7.07,37.28
-0.87,-1.17,7.07,37.28
-3.6,1.86,9.84,37.28
0.23,-0.47,11.37,37.31
2.31,-0.54,9.03,37.24
2.87,-1.37,7.1,37.29
-0.48,-0.15,7.94,37.27
-3.88,0.29,10.26,37.24
0.38,0.51,10.59,37.3
3.36,-0.23,8.81,37.27
3.72,-1.7,7.4,37.27
-1.28,0.0,7.34,37.31
-2.17,0.73,10.44,37.25
2.8,-0.52,10.11,37.27
5.31,-1.3,6.6,37.24
2.66,1.1,5.91,37.28
-1.34,0.38,8.54,37.28
1.36,0.96,10.26,37.29
4.46,-1.46,9.98,37.3
5.39,-1.44,7.81,37.32
2.32,-1.33,7.68,37.29
0.43,0.0,9.68,37.28
1.88,0.09,10.94,37.3
4.75,-0.89,9.19,37.29
5.13,-0.32,7.49,37.29
1.75,-0.56,6.97,37.31
-0.34,0.55,9.29,37.28
1.34,1.26,9.16,37.32
2.37,-0.49,9.79,37.3
2.55,-0.93,8.82,37.27
5.71,-0.68,6.65,37.33
1.08,-0.4,8.06,37.33
0.06,-1.63,8.42,37.29
-2.75,-0.61,9.27,37.3
-2.35,-0.07,11.29,37.29
0.84,1.58,10.68,37.27
4.78,-0.92,9.49,37.3
1.98,-1.72,8.0,37.29
-2.93,0.41,8.92,37.29
-2.65,-0.59,12.48,37.23
1.06,1.35,10.33,37.29
5.22,-0.66,8.21,37.27
2.83,-1.2,8.49,37.32
-4.9,0.11,8.6,37.29
-2.8,0.27,11.24,37.33
2.01,0.82,9.67,37.26
3.67,-0.31,8.77,37.28
3.11,-1.57,8.58,37.28
-2.7,-0.67,9.86,37.3
-2.11,0.33,11.73,37.28
2.27,0.4,10.21,37.27
1.88,-1.33,7.1,37.3
-1.17,0.62,8.53,37.29
-0.22,1.16,10.62,37.31
3.84,-0.91,10.32,37.25
7.71,-0.23,6.61,37.3
4.1,-1.59,7.55,37.3
-2.19,0.95,7.67,37.32
1.28,1.06,10.07,37.29
4.21,-1.21,10.98,37.32
5.59,-0.5,6.23,37.34
3.23,-0.1,6.53,37.34
-0.94,-0.18,8.28,37.3
0.08,1.8,10.0,37.3
3.81,-1.09,10.04,37.28
5.82,-0.92,7.16,37.29
0.97,-1.96,7.07,37.32
-1.75,0.76,7.95,37.25
-0.16,0.06,10.46,37.27
3.68,-0.22,9.0,37.3
5.26,-1.21,7.92,37.31
-0.42,0.52,9.69,37.29
1.41,0.41,9.32,37.31
2.47,0.34,10.35,37.28
4.75,-1.09,8.03,37.3
2.6,-1.43,8.09,37.33
-0.5,-1.15,9.02,37.31
-1.19,1.71,9.05,37.34
0.49,0.25,11.59,37.29
3.75,-2.28,8.99,37.32
2.23,-0.93,7.73,37.3
-0.9,-0.24,8.74,37.28
-1.87,1.27,10.51,37.24
2.06,0.53,11.6,37.29
5.47,-1.74,8.88,37.29
1.57,-0.53,7.4,37.29
-0.01,-0.54,8.82,37.31
0.75,1.29,10.27,37.3
2.57,1.47,10.16,37.27
3.88,-1.16,8.13,37.29
2.14,-2.1,8.07,37.28
2.3,0.52,10.9,37.27
6.2,0.34,8.23,37.33
4.49,-2.75,8.27,37.29
-2.23,0.84,8.84,37.31
0.94,-1.2,11.46,37.29
2.84,0.18,10.11,37.3
5.12,0.7,7.35,37.3
3.05,-2.7,7.5,37.27
-3.26,0.79,9.07,37.32
-0.06,-1.02,11.18,37.32
2.41,1.64,8.18,37.32
4.62,-1.25,7.84,37.28
2.0,-1.01,7.93,37.3
-3.96,-0.08,10.05,37.29
-0.28,0.01,11.53,37.3
3.27,1.1,9.09,37.34
5.4,-1.21,9.42,37.25
2.61,-1.37,8.45,37.27
-3.62,-0.13,9.17,37.3
-2.05,-0.76,12.66,37.27
1.05,1.41,9.32,37.3
4.29,-0.83,8.62,37.31
0.21,-1.13,8.13,37.29
-4.49,0.82,9.32,37.32
-4.24,0.24,11.27,37.27
1.29,0.05,9.26,37.27
3.4,-0.49,9.6,37.31
2.36,-1.8,7.69,37.32
-0.25,-1.44,8.71,37.32
-2.32,-1.22,9.99,37.3
1.04,0.06,11.67,37.3
2.79,0.38,10.42,37.29
7.75,-1.64,7.37,37.34
-2.01,-1.93,9.17,37.28
-3.54,-0.19,11.07,37.26
1.52,0.18,11.71,37.31
3.11,0.33,9.99,37.28
4.92,-0.85,7.53,37.28
-1.14,-1.41,9.07,37.28
0.5,-0.5,11.15,37.27
1.56,1.68,9.45,37.27
4.81,1.18,9.81,37.31
5.16,-1.35,8.22,37.28
-1.18,0.08,7.35,37.33
-3.13,-0.37,11.35,37.27
1.41,1.78,9.19,37.3
1.31,1.6,8.74,37.33
3.2,-1.41,8.55,37.29
-1.98,-0.54,8.55,37.26
-3.5,0.69,10.06,37.33
-0.04,1.26,9.99,37.3
1.42,0.05,10.53,37.29
3.94,-2.21,9.32,37.29
-3.27,-0.83,8.4,37.25
-5.51,-0.32,12.03,37.28
0.34,0.56,10.94,37.31
3.01,-0.79,11.14,37.27
3.64,-1.25,7.65,37.33
-3.67,-1.11,8.55,37.27
-3.82,-0.79,11.99,37.29
-0.03,1.23,10.47,37.29
2.41,-0.58,9.85,37.32
5.43,-1.6,7.67,37.34
-1.32,-0.98,8.38,37.29
-2.24,-0.25,10.19,37.31
1.54,-0.1,10.61,37.31
4.57,0.35,8.3,37.29
3.91,-0.98,6.08,37.32
-3.06,-1.08,7.96,37.33
-3.02,-0.55,10.36,37.31
2.77,0.62,10.21,37.33
2.75,0.03,8.16,37.32
3.48,-1.27,5.83,37.28
-3.37,-1.11,8.31,37.36
-3.9,-0.74,10.91,37.29
0.06,0.19,10.88,37.32
2.34,-0.38,8.04,37.31
3.76,-0.92,7.0,37.33
-0.3,-1.29,8.09,37.33
-1.37,-0.41,9.34,37.33
-0.89,0.14,10.24,37.27
2.98,0.68,9.91,37.26
5.55,-1.31,7.57,37.3
1.69,-0.48,8.45,37.3
-2.92,-0.44,9.6,37.25
2.21,0.87,10.7,37.34
3.64,-0.8,11.2,37.34
5.2,-1.26,8.77,37.33
2.56,-1.46,8.62,37.28
-0.74,-0.28,9.88,37.32
1.52,0.94,10.14,37.32
3.32,-0.66,10.72,37.31
4.7,-1.89,8.48,37.33
3.16,-0.37,6.82,37.31
-0.28,-1.47,10.87,37.34
2.51,0.94,10.57,37.25
4.58,-0.42,11.25,37.29
3.82,-1.96,9.72,37.31
4.21,-1.64,8.24,37.28
0.74,-2.28,8.12,37.33
0.07,-0.19,9.67,37.34
1.29,0.61,11.58,37.31
3.36,0.4,11.18,37.31
6.43,-2.33,7.91,37.32
1.22,-1.39,8.42,37.31
-0.4,-0.4,10.77,37.32
2.84,1.72,11.65,37.29
3.96,0.36,10.28,37.3
5.37,-1.3,7.6,37.3
-0.51,-1.44,9.32,37.33
-0.99,-0.51,10.66,37.34
0.48,2.24,9.99,37.31
2.59,-0.09,10.45,37.31
3.82,-1.07,8.2,37.33
-1.72,-1.73,10.02,37.29
-1.29,0.07,9.66,37.31
1.25,1.92,10.07,37.31
2.63,0.33,9.36,37.3
2.92,-1.49,7.86,37.32
-3.54,-0.69,8.68,37.32
-0.99,1.16,8.92,37.3
0.66,1.02,11.64,37.31
3.71,-0.01,9.08,37.34
2.21,-0.82,7.41,37.27
-3.26,-1.87,9.4,37.3
-1.26,-0.43,10.61,37.34
-0.45,1.02,11.01,37.3
3.36,-0.58,10.12,37.28
1.64,-1.66,7.22,37.31
-1.83,-2.09,9.64,37.32
-0.53,-0.79,10.86,37.3
0.49,2.2,9.81,37.3
5.05,0.64,9.63,37.29
3.17,-2.95,7.72,37.33
-3.79,-1.48,9.0,37.27
-0.66,0.6,9.74,37.29
0.54,0.86,11.62,37.31
2.69,0.4,10.82,37.31
3.27,-2.43,7.32,37.34
-5.12,-2.02,10.7,37.32
-0.8,0.57,10.16,37.32
0.6,1.4,11.51,37.35
3.49,1.53,7.91,37.33
0.89,-2.87,8.5,37.32
-6.37,-0.54,8.77,37.29
-0.13,0.76,10.14,37.31
1.69,0.25,11.76,37.3
3.69,0.17,8.66,37.31
2.09,-2.09,7.5,37.3
-4.01,-1.64,8.69,37.28
-2.99,1.06,10.37,37.32
-0.64,1.27,11.21,37.3
5.09,0.59,9.2,37.31
1.17,-2.15,8.0,37.29
-4.38,-0.31,8.41,37.31
-2.69,-0.36,11.65,37.27
-0.38,0.74,11.04,37.28
3.84,0.41,8.22,37.32
-0.06,-2.49,7.31,37.29
-5.11,-1.07,9.96,37.3
-3.52,0.24,11.8,37.28
2.47,1.21,9.87,37.31
3.25,0.25,11.36,37.34
5.13,-0.08,8.0,37.34
2.22,-1.87,8.49,37.33
-0.97,-0.5,8.97,37.3
1.89,0.69,9.85,37.34
2.73,0.12,10.84,37.32
4.56,-1.05,8.16,37.24
2.15,-2.0,8.15,37.29
-1.07,0.14,8.51,37.3
0.85,1.18,11.11,37.32
4.25,0.3,11.05,37.29
5.2,-0.4,10.49,37.29
4.55,-1.44,8.49,37.33
1.53,-1.49,7.95,37.35
1.56,1.27,10.17,37.31
1.96,1.34,10.69,37.31
6.39,0.27,8.88,37.31
4.6,-1.06,6.77,37.3
1.14,-0.36,7.69,37.32
0.72,0.33,9.27,37.33
-2.09,0.16,10.3,37.3
-2.84,0.29,11.23,37.28
2.11,-0.03,10.08,37.29
4.03,-0.96,7.9,37.31
-1.52,-1.32,7.91,37.32
-5.23,-0.64,11.01,37.32
-2.09,0.19,10.68,37.34
2.93,0.89,8.28,37.27
3.26,-0.66,8.06,37.34
0.02,-0.88,7.14,37.27
-2.08,-1.23,10.5,37.29
0.78,0.55,10.3,37.32
3.87,1.37,9.62,37.33
4.53,-1.8,6.71,37.3
0.92,-1.09,8.49,37.32
-3.85,-0.57,10.53,37.33
1.42,0.1,11.82,37.28
4.48,-0.32,9.66,37.27
3.91,-1.73,6.14,37.29
-0.3,-0.29,7.34,37.32
2.55,0.39,9.84,37.34
3.09,0.61,7.58,37.28
4.3,-0.74,6.55,37.29
-0.7,-0.08,6.43,37.28
-3.04,0.61,9.42,37.3
0.62,-0.44,12.03,37.33
3.32,0.54,7.93,37.26
3.34,-0.79,6.23,37.33
-1.32,-0.8,7.75,37.29
-2.59,1.02,9.78,37.3
1.02,-0.49,11.53,37.26
4.7,0.55,7.86,37.29
3.89,-1.49,6.82,37.27
-0.71,-0.02,6.58,37.33
-1.22,0.26,9.43,37.31
1.38,-0.17,10.46,37.27
4.09,0.44,8.09,37.28
5.68,-0.88,5.97,37.31
-0.3,0.02,6.5,37.29
-3.25,-0.47,8.69,37.28
0.27,1.44,9.94,37.29
2.12,0.49,7.69,37.27
3.31,-0.79,8.04,37.32
-1.48,-1.64,7.51,37.3
-2.1,0.41,9.31,37.3
0.14,-0.72,11.78,37.29
1.97,2.39,8.06,37.31
1.65,-1.77,8.55,37.31
-2.05,0.13,7.47,37.29
-4.28,-0.22,10.31,37.32
-0.95,0.78,10.03,37.32
3.39,1.91,7.72,37.35
2.9,-2.19,8.37,37.33
-3.58,-0.34,7.69,37.29
0.07,-1.03,9.63,37.32
1.4,0.51,10.09,37.29
4.23,0.36,7.41,37.29
4.23,-2.49,7.26,37.3
-0.56,-2.32,8.1,37.33
2.86,0.1,10.52,37.32
3.57,0.01,8.69,37.36
3.77,-1.4,7.73,37.28
-0.18,-0.1,8.82,37.35
-0.17,0.86,9.93,37.29
2.82,1.12,10.63,37.28
4.07,-1.46,9.24,37.31
3.23,-0.94,7.45,37.34
-2.08,-0.58,8.92,37.32
-0.74,1.15,9.77,37.33
2.78,0.48,10.51,37.28
3.09,-1.13,9.2,37.34
5.05,-1.35,6.79,37.33
-2.44,-0.72,9.03,37.26
-3.29,0.45,9.22,37.31
3.64,-0.04,10.78,37.28
2.61,-0.78,10.04,37.37
4.25,-1.41,7.04,37.32
-0.23,-2.4,7.59,37.28
5.76,-0.46,7.6,37.33
3.17,-1.9,8.1,37.31
1.23,-1.33,9.27,37.28
-0.26,1.64,9.33,37.31
2.24,1.17,10.24,37.33
5.98,-0.59,10.51,37.29
4.3,-1.78,8.19,37.33
1.06,-0.22,8.13,37.34
-0.6,0.54,9.62,37.31
2.47,1.68,10.2,37.29
5.11,0.34,8.77,37.33
3.57,-1.17,7.41,37.33
-0.18,-2.13,9.31,37.29
0.85,1.13,8.37,37.35
3.7,0.02,10.26,37.3
5.77,-1.65,9.8,37.3
4.16,-0.64,5.81,37.29
2.03,-1.4,9.4,37.34
0.26,-0.26,10.98,37.31
5.16,0.86,10.18,37.29
9.94,-1.0,8.83,37.3
4.93,-2.46,8.16,37.3
0.83,-1.21,9.84,37.31
3.24,-0.16,10.47,37.28
4.66,0.71,11.02,37.29
6.87,-0.74,8.66,37.3
4.21,-2.73,7.52,37.27
1.04,-1.81,10.42,37.36
0.53,0.49,10.83,37.27
3.98,1.44,10.73,37.31
7.91,-2.31,9.76,37.28
2.65,-2.55,7.93,37.26
0.23,-1.88,10.59,37.3
1.47,1.01,11.08,37.3
4.21,0.3,10.89,37.33
5.14,-2.22,9.66,37.31
2.3,-2.07,8.35,37.28
0.79,-1.42,10.58,37.3
0.23,-0.27,10.81,37.29
4.06,2.61,9.28,37.28
2.4,-0.13,11.09,37.27
3.68,-0.89,9.01,37.3
5.42,-0.94,5.54,37.31
-1.21,0.17,7.47,37.32
-0.34,1.23,10.45,37.31
1.86,0.45,11.27,37.28
4.0,-0.4,8.12,37.32
5.66,-1.02,6.53,37.3
-2.06,-0.48,8.57,37.34
-0.69,1.74,9.09,37.34
2.88,-0.52,11.11,37.3
4.69,-1.16,8.16,37.29
3.39,-0.42,7.14,37.32
-2.03,-0.19,7.66,37.32
0.11,0.49,10.64,37.31
2.91,0.41,10.08,37.32
2.46,-0.35,7.7,37.29
1.61,-0.46,6.86,37.33
-2.07,0.1,8.37,37.29
0.94,1.08,11.04,37.33
4.53,-0.01,8.3,37.27
3.11,-1.08,7.81,37.29
1.07,-1.1,7.54,37.26
-0.08,0.97,8.76,37.26
0.37,1.55,10.18,37.27
5.02,-0.4,10.07,37.27
3.79,-2.65,7.22,37.29
0.48,-0.83,7.32,37.25
-0.09,0.81,9.77,37.31
2.35,1.58,11.21,37.28
6.74,-0.32,9.37,37.27
4.63,-3.56,7.02,37.3
1.91,-0.83,7.93,37.29
2.72,0.39,10.25,37.3
2.36,0.91,10.05,37.26
5.92,-0.55,8.87,37.29
4.31,-2.48,7.96,37.31
0.27,-1.14,10.02,37.29
1.09,-0.08,9.35,37.29
2.77,0.46,10.46,37.31
4.8,-1.59,8.77,37.27
0.56,-2.43,8.06,37.34
-3.54,-0.61,9.85,37.28
-0.12,0.52,10.54,37.32
2.42,0.53,9.88,37.3
3.13,-0.51,8.16,37.31
-0.22,-1.58,7.61,37.3
-4.59,-0.77,10.81,37.29
1.18,0.62,10.91,37.29
1.38,1.15,11.38,37.32
4.67,-2.15,8.43,37.25
-1.69,-2.48,9.37,37.29
-4.43,-0.2,9.95,37.31
0.2,0.84,11.17,37.28
1.26,0.35,10.38,37.31
5.03,-0.42,7.86,37.33
-1.7,-1.51,7.96,37.32
-4.13,-0.01,10.03,37.3
0.96,0.2,12.11,37.28
3.75,0.98,9.2,37.36
5.86,-1.68,7.74,37.31
-0.76,-1.64,8.4,37.29
-2.52,0.08,10.12,37.32
1.6,-1.14,12.26,37.29
2.71,1.31,9.01,37.27
4.78,-1.01,7.63,37.3
-0.23,-2.35,8.62,37.29
-2.8,0.19,9.54,37.29
0.51,0.8,11.09,37.26
2.77,1.36,8.52,37.31
4.09,-0.44,5.98,37.32
-3.31,-1.01,7.72,37.3
-2.45,1.03,9.45,37.3
-0.4,0.69,10.72,37.28
1.75,0.69,8.8,37.36
4.03,-1.79,7.62,37.27
-1.49,-1.0,7.82,37.29
-1.7,0.23,10.48,37.27
1.0,0.1,11.62,37.31
3.2,0.45,8.21,37.3
4.14,-1.35,6.37,37.29
-1.95,0.01,7.44,37.26
-3.45,0.27,10.43,37.28
1.4,0.48,10.38,37.32
5.03,1.14,7.34,37.27
4.8,-1.49,6.46,37.29
-2.11,0.07,7.83,37.31
-1.74,-0.19,9.79,37.29
0.73,-0.07,10.73,37.29
2.4,0.08,7.96,37.25
4.15,-0.95,7.1,37.28
1.19,-2.0,7.83,37.32
-3.85,0.96,9.05,37.28
-0.35,0.52,11.27,37.27
1.63,0.59,10.84,37.26
3.97,-1.24,8.05,37.32
1.48,-2.16,6.39,37.27
-4.71,0.11,9.04,37.24
0.01,-2.87,10.35,37.29
0.07,0.08,9.39,37.26
2.34,-0.43,10.82,37.33
1.73,0.81,10.73,37.25
6.08,-1.75,8.12,37.29
1.49,-2.0,9.16,37.3
-2.58,-0.28,9.73,37.28
1.15,0.7,10.18,37.29
2.75,0.28,11.06,37.27
5.35,-1.53,7.63,37.25
1.41,-1.95,9.27,37.3
-0.06,-0.54,9.9,37.29
0.91,0.72,11.73,37.28
3.67,-0.14,10.93,37.28
6.69,-2.18,8.45,37.29
1.12,-1.99,8.7,37.29
-0.17,0.05,9.71,37.27
0.87,1.7,10.18,37.32
4.67,0.14,10.44,37.32
6.53,-1.2,8.05,37.29
0.61,-1.85,9.16,37.29
0.75,-0.55,10.46,37.27
1.23,1.54,11.22,37.27
4.15,0.42,10.23,37.28
5.53,-1.7,8.25,37.28
0.31,-2.42,9.07,37.29
0.7,-0.01,10.11,37.31
1.65,1.04,10.53,37.32
5.46,0.13,9.67,37.27
5.55,-1.57,7.22,37.32
1.39,-1.51,8.51,37.27
0.75,-1.23,11.24,37.32
1.55,1.99,8.82,37.29
5.87,-0.47,9.46,37.29
4.2,-1.56,8.11,37.28
-1.46,-0.73,9.14,37.31
-1.59,0.88,9.91,37.31
0.52,1.19,11.05,37.27
3.77,-0.19,10.04,37.27
3.15,-2.08,7.75,37.27
-2.2,-0.06,9.21,37.29
-2.94,0.04,11.03,37.28
-0.88,2.99,10.09,37.27
3.21,-0.2,8.94,37.3
3.46,-2.04,7.62,37.27
-3.25,0.75,8.59,37.29
-2.28,1.17,9.88,37.29
0.03,1.49,10.71,37.31
3.7,-1.79,9.6,37.25
3.11,-1.86,7.7,37.32
-2.52,-0.61,8.68,37.32
-1.61,0.12,10.97,37.25
1.33,1.12,10.16,37.31
5.34,-0.37,7.96,37.32
3.54,-2.49,7.85,37.28
-2.51,0.32,7.84,37.27
-1.82,-0.02,11.17,37.27
1.43,0.99,9.6,37.32
3.84,0.24,7.46,37.27
1.84,-1.53,6.79,37.28
-4.19,1.08,8.06,37.26
-3.29,0.14,11.53,37.31
1.47,0.77,9.38,37.31
3.33,-0.67,8.05,37.31
1.67,-1.23,7.8,37.29
-5.26,0.54,8.17,37.23
-3.27,-0.49,11.83,37.26
-0.43,-0.19,9.85,37.27
4.32,0.91,7.03,37.29
3.62,-1.89,7.24,37.31
-4.75,1.15,7.71,37.28
-2.84,0.54,11.02,37.24
2.25,0.16,10.11,37.27
4.39,-0.96,7.21,37.3
1.53,-0.94,6.52,37.29
-3.54,1.67,9.03,37.32
-1.35,-0.88,11.59,37.29
1.45,0.19,9.48,37.3
3.94,-2.45,7.95,37.3
3.62,-1.49,7.36,37.26
-1.67,-1.17,9.35,37.27
-0.51,0.72,10.43,37.26
2.32,0.07,9.49,37.28
4.34,-0.92,7.52,37.27
5.92,-1.08,7.35,37.31
0.7,-1.79,8.72,37.27
-1.5,1.13,9.96,37.28
1.99,0.76,10.34,37.32
4.24,0.11,8.22,37.3
6.79,-1.19,6.97,37.29
1.19,-1.21,8.49,37.33
-1.02,1.61,9.25,37.29
2.65,-0.12,10.57,37.29
4.55,-0.19,8.6,37.32
5.77,-1.0,6.5,37.31
-0.41,-0.17,8.31,37.28
-1.73,1.58,10.12,37.26
1.58,-0.88,11.03,37.27
5.42,1.25,6.78,37.33
4.86,-1.86,7.44,37.26
-1.53,0.87,8.0,37.32
-3.08,1.33,10.22,37.31
0.69,-0.5,11.0,37.31
3.88,-0.26,7.47,37.31
5.2,-1.14,6.11,37.27
0.08,-0.28,8.0,37.3
-1.89,1.87,9.03,37.3
1.87,-1.25,10.57,37.28
5.79,-1.36,8.42,37.29
5.28,-0.93,6.42,37.27
-0.49,0.32,8.1,37.27
-2.07,1.25,9.58,37.29
1.33,-0.5,10.03,37.29
5.3,-0.76,7.79,37.27
4.15,-1.95,6.55,37.24
-0.47,0.79,7.29,37.29
-1.23,-0.3,11.18,37.28
2.0,-0.46,10.44,37.28
4.56,-1.07,8.26,37.31
3.24,-2.34,8.21,37.29
-0.52,0.88,8.11,37.28
-1.05,1.14,9.93,37.29
1.76,0.45,9.06,37.29
3.65,-1.47,8.24,37.27
1.56,-0.11,6.87,37.26
-0.52,0.32,7.65,37.27
-1.24,1.01,10.32,37.26
3.24,-0.88,10.79,37.27
4.25,-2.06,8.71,37.27
2.65,-0.98,7.15,37.32
-0.96,-0.07,8.93,37.27
-1.35,0.71,11.03,37.28
3.29,-1.18,10.07,37.3
4.55,-1.79,7.43,37.29
2.72,0.24,6.27,37.3
-0.63,0.01,9.43,37.29
0.3,0.35,10.27,37.3
4.56,0.05,9.52,37.27
5.14,-2.49,7.84,37.32
3.09,-0.52,7.0,37.26
-1.17,0.71,9.04,37.29
0.49,0.16,11.75,37.31
4.95,-1.5,10.2,37.29
5.09,-2.14,7.53,37.32
4.1,-0.48,7.49,37.32
0.23,0.97,9.03,37.29
1.54,0.68,11.04,37.25
5.5,-2.12,9.85,37.34
6.22,-1.84,8.03,37.3
5.16,-1.04,8.18,37.27
0.22,1.31,9.12,37.3
2.33,1.26,10.09,37.28
5.58,-0.38,10.11,37.28
6.61,-1.69,8.14,37.3
3.05,-1.08,7.71,37.26
0.12,1.06,8.82,37.27
2.75,1.2,9.64,37.3
4.14,-0.8,11.15,37.32
5.35,-2.28,7.83,37.27
2.11,-1.53,8.76,37.27
-1.11,0.11,10.41,37.25
2.55,0.3,10.29,37.23
3.13,-0.85,10.18,37.27
5.9,-1.64,7.11,37.25
1.74,-1.91,9.35,37.26
0.4,0.06,9.46,37.29
2.29,1.77,10.01,37.3
4.3,-1.73,10.89,37.28
4.83,-1.53,7.17,37.27
1.67,-0.88,8.53,37.29
0.87,0.25,8.48,37.28
0.07,1.44,9.85,37.29
2.73,-0.11,10.66,37.3
7.3,-1.85,8.08,37.29
3.28,-1.06,7.63,37.28
-0.98,-0.28,10.52,37.25
1.39,0.33,10.93,37.28
3.02,0.33,9.85,37.26
5.92,-2.02,8.26,37.28
3.33,-1.5,8.41,37.32
1.24,-0.57,9.48,37.34
1.73,1.13,9.22,37.29
3.95,0.71,9.9,37.27
6.85,-1.68,8.54,37.29
3.32,-1.48,8.36,37.27
0.52,-0.1,9.05,37.33
1.64,0.67,10.18,37.31
3.74,0.37,9.93,37.31
6.96,-1.0,8.3,37.31
4.09,-1.95,8.59,37.28
0.11,-0.2,9.55,37.28
1.8,0.98,10.1,37.29
3.65,-0.13,10.0,37.28
6.6,-1.41,8.87,37.3
3.44,-2.02,8.26,37.27
-0.8,0.5,9.48,37.28
0.17,1.32,10.29,37.28
4.09,-0.43,11.4,37.29
6.3,-2.53,9.18,37.31
1.92,-1.49,7.75,37.29
-0.9,0.19,10.84,37.31
0.08,1.36,10.49,37.29
4.0,-0.12,10.77,37.3
5.24,-3.02,9.15,37.24
0.74,0.46,7.26,37.29
-1.77,-0.21,11.28,37.29
0.37,0.75,10.5,37.29
3.47,-0.55,9.83,37.29
4.49,-1.9,8.85,37.34
0.42,-0.52,7.92,37.32
-2.08,0.05,10.95,37.27
0.94,0.24,10.83,37.29
3.54,-0.03,9.81,37.29
4.36,-2.31,8.99,37.27
-0.15,-0.84,8.25,37.28
-3.67,0.04,11.32,37.29
3.63,-1.32,7.18,37.27
0.25,1.07,7.61,37.27
-1.76,0.52,10.71,37.23
1.91,-0.23,10.4,37.25
5.68,-1.58,8.49,37.29
3.77,-1.47,7.21,37.27
0.22,0.75,8.63,37.32
-0.82,0.28,10.56,37.26
2.76,-0.74,9.82,37.29
5.05,-1.88,8.0,37.24
4.0,-1.51,7.55,37.24
-0.74,1.47,8.44,37.29
0.13,1.07,10.07,37.26
2.39,-0.6,10.23,37.28
4.28,-1.57,8.07,37.3
4.46,-1.51,8.33,37.25
0.98,0.2,9.13,37.26
0.33,1.31,9.11,37.3
3.72,-0.21,10.46,37.27
5.44,-1.78,8.48,37.26
0.9,0.37,10.57,37.24
4.5,0.14,10.17,37.26
5.19,-2.18,8.76,37.26
0.37,-0.17,8.13,37.28
-0.43,-0.25,10.26,37.26
0.5,1.24,10.35,37.31
3.35,-0.15,9.9,37.26
6.12,-2.01,8.14,37.28
-0.64,-0.43,8.18,37.23
-2.3,0.42,10.58,37.33
-0.84,0.5,11.26,37.29
2.96,-0.66,10.11,37.31
4.44,-2.72,8.71,37.27
-0.8,-0.45,8.53,37.25
-2.02,-0.35,11.21,37.24
-0.61,0.42,11.18,37.27
2.72,-0.08,9.44,37.28
3.91,-2.51,9.04,37.29
-0.89,-0.7,8.58,37.23
-2.58,-0.22,11.15,37.29
1.07,0.35,10.42,37.27
2.01,0.12,9.27,37.22
3.83,-1.54,8.32,37.28
3.24,-1.82,8.29,37.27
-2.59,-0.06,9.58,37.31
-0.62,0.58,10.31,37.29
3.19,-0.4,9.69,37.29
4.06,-1.63,9.12,37.29
2.09,-1.77,7.81,37.27
-3.28,-0.18,9.89,37.29
-0.87,1.05,11.06,37.27
1.68,0.42,10.65,37.27
3.79,-1.89,8.36,37.27
0.97,-1.24,6.97,37.28
-2.49,0.27,9.93,37.27
-0.9,0.58,11.19,37.25
1.35,-0.2,9.75,37.27
3.66,-1.75,8.39,37.27
0.29,-0.72,7.58,37.25
3.12,-0.52,9.99,37.31
4.49,-1.77,7.87,37.28
3.8,0.22,6.24,37.3
0.46,0.25,8.55,37.27
-0.91,0.5,10.15,37.24
3.12,-0.43,10.05,37.25
5.15,-2.6,9.07,37.3
3.94,-0.76,7.24,37.23
-0.51,0.14,8.59,37.28
-0.18,1.34,10.23,37.23
4.02,-0.51,10.87,37.3
4.64,-2.59,9.03,37.22
3.37,-0.48,7.15,37.33
-1.18,0.29,9.54,37.28
1.15,1.34,10.08,37.29
3.03,-0.4,10.35,37.26
5.22,-1.52,7.26,37.25
2.77,-1.74,8.8,37.28
-0.51,0.29,9.42,37.29
0.92,1.18,10.69,37.29
3.72,-1.05,11.16,37.22
6.01,-1.39,7.33,37.25
3.15,-1.92,8.45,37.27
0.09,0.21,9.96,37.27
1.07,1.58,10.06,37.32
4.86,-0.48,10.57,37.29
5.54,-2.8,8.61,37.27
1.3,-0.34,7.81,37.31
0.19,0.2,9.5,37.27
0.48,1.28,10.65,37.26
3.43,-0.41,9.95,37.26
5.61,-2.51,8.55,37.29
0.45,-0.51,7.45,37.31
-1.48,0.3,10.18,37.29
-0.09,0.49,11.05,37.27
2.89,0.0,9.88,37.29
5.1,-2.44,8.4,37.32
-0.1,-1.47,8.78,37.32
-2.61,1.0,9.9,37.26
-0.85,0.32,11.65,37.26
1.49,-0.15,9.85,37.23
4.28,-1.89,8.02,37.29
-1.09,-1.11,8.33,37.29
-3.03,0.66,10.12,37.26
0.04,0.53,10.82,37.26
0.97,-0.28,9.37,37.27
3.95,-1.71,7.74,37.28
-0.83,-0.95,8.48,37.29
-3.27,0.35,10.96,37.29
0.12,0.88,10.57,37.34
3.02,-0.79,9.57,37.26
3.71,-1.58,7.79,37.26
-1.51,-0.44,8.17,37.28
-2.8,0.95,10.39,37.31
0.34,0.22,10.39,37.26
1.93,-0.52,8.87,37.29
3.58,-1.32,7.33,37.29
-0.49,-1.07,8.28,37.24
-2.74,0.94,10.57,37.24
-0.56,-0.6,10.97,37.28
3.86,0.28,8.34,37.37
4.55,-1.9,7.8,37.31
-1.44,0.16,7.8,37.27
-1.92,1.25,10.14,37.3
1.43,-0.68,11.26,37.27
3.14,-0.17,8.27,37.26
3.95,-1.24,7.36,37.28
-0.72,-0.09,8.36,37.29
-3.66,0.44,9.05,37.29
-1.27,0.39,11.15,37.27
1.45,-0.7,9.89,37.2
2.64,-1.26,6.99,37.25
2.57,-1.82,7.79,37.29
-3.17,1.08,8.88,37.22
-1.59,1.16,10.93,37.3
1.88,-0.54,10.2,37.29
3.96,-1.22,7.46,37.27
2.26,-1.12,7.67,37.25
-2.01,1.45,8.75,37.27
-0.87,0.98,10.68,37.28
2.34,-0.79,9.42,37.26
4.12,-1.43,7.21,37.28
1.18,-1.43,8.02,37.26
-1.37,1.26,9.01,37.3
-0.84,0.43,11.14,37.27
3.72,-0.92,9.41,37.29
4.43,-1.58,7.86,37.29
1.82,-0.54,7.86,37.28
-0.74,1.08,9.15,37.25
1.0,0.18,10.75,37.27
5.33,-0.63,9.59,37.26
5.32,-2.2,8.08,37.28
2.86,-0.25,7.69,37.25
0.1,1.02,9.68,37.3
2.32,0.95,10.26,37.27
4.5,-1.24,10.2,37.25
4.66,-2.0,7.92,37.27
1.93,-0.7,8.28,37.23
-0.39,0.31,10.37,37.3
1.29,1.23,10.46,37.28
4.69,-1.53,9.8,37.26
5.2,-1.68,7.77,37.27
0.73,-0.61,8.8,37.25
-0.74,1.22,9.95,37.28
1.66,0.87,10.61,37.28
4.64,-1.62,10.16,37.26
5.21,-1.81,7.84,37.27
0.1,-0.17,9.0,37.24
-0.53,-0.15,10.66,37.28
2.04,1.14,9.85,37.28
5.23,-1.3,10.18,37.25
4.47,-2.08,8.03,37.26
-0.43,0.06,8.55,37.28
-0.94,-0.17,11.16,37.27
1.06,0.69,10.37,37.29
3.97,-0.74,9.7,37.26
3.34,-2.4,8.15,37.23
-1.26,0.92,8.64,37.27
-1.73,-0.28,11.39,37.26
0.2,1.06,10.49,37.27
3.76,-0.61,9.34,37.23
3.46,-2.2,8.6,37.28
-2.2,0.4,8.95,37.28
-2.56,0.1,11.72,37.26
1.21,-0.24,10.8,37.24
3.73,-0.39,8.36,37.24
3.91,-1.67,7.82,37.28
-2.02,0.2,8.71,37.22
-1.32,0.79,10.65,37.28
1.19,0.01,10.7,37.26
3.62,-0.67,7.73,37.27
3.16,-2.07,7.52,37.25
-2.65,0.36,7.79,37.31
-3.26,1.07,10.49,37.23
1.16,-0.69,10.78,37.21
4.19,-1.15,7.28,37.29
3.16,-1.03,7.03,37.26
-1.48,1.07,8.33,37.26
-1.82,0.98,11.03,37.23
2.93,-0.96,10.84,37.23
5.3,-1.3,7.54,37.27
4.33,-1.55,7.66,37.27
-0.68,0.35,8.67,37.29
-0.6,1.71,10.02,37.3
3.32,-0.87,11.21,37.24
4.44,-1.2,7.69,37.22
3.67,-0.43,6.81,37.26
-0.1,0.34,8.73,37.24
-0.15,1.49,9.63,37.23
4.25,-1.19,10.76,37.27
5.13,-2.22,8.25,37.27
3.23,-0.93,7.57,37.21
0.05,0.21,9.3,37.29
0.73,1.23,9.64,37.25
3.5,-0.41,10.32,37.23
4.78,-2.21,8.15,37.27
4.29,-1.15,7.4,37.29
0.57,0.79,10.96,37.24
3.75,0.05,9.62,37.28
4.8,-2.43,10.27,37.24
4.04,-0.68,7.83,37.28
-1.65,0.0,10.21,37.25
-0.64,0.89,10.2,37.29
1.66,0.71,10.72,37.25
4.73,-2.53,8.75,37.24
3.02,-1.91,7.67,37.29
-1.02,-0.21,9.55,37.24
-0.25,0.36,11.01,37.24
1.64,0.53,10.42,37.25
4.73,-1.59,8.64,37.23
3.35,-2.37,7.98,37.26
-3.42,0.71,9.34,37.25
-1.71,1.08,11.0,37.25
0.94,0.29,10.77,37.25
4.33,-1.48,8.83,37.28
2.76,-1.6,7.42,37.24
-3.14,0.95,9.45,37.27
-1.21,-0.19,11.57,37.26
1.2,0.34,9.92,37.27
3.92,-1.22,8.28,37.24
2.41,-1.54,7.12,37.19
-3.58,1.39,8.66,37.27
-1.58,0.36,11.03,37.21
1.95,0.03,9.88,37.23
3.66,-1.47,7.84,37.24
2.53,-1.11,6.96,37.28
-3.41,0.7,9.09,37.24
-1.36,1.4,9.95,37.25
2.25,-0.48,9.42,37.22
3.56,-1.5,7.64,37.26
2.58,-0.85,6.56,37.23
-2.61,1.3,8.65,37.29
0.23,0.98,10.8,37.27
2.71,-1.54,10.34,37.26
5.06,-1.26,7.52,37.24
2.91,-1.13,7.18,37.25
-3.31,0.99,8.89,37.25
-2.02,0.33,11.63,37.26
1.66,-0.17,10.54,37.32
3.45,-1.07,8.93,37.29
2.94,-1.58,7.8,37.25
-3.33,0.56,9.22,37.29
-2.35,0.44,11.17,37.25
0.86,-0.48,10.9,37.31
3.36,-0.79,8.27,37.24
1.86,-1.32,7.19,37.26
-3.34,0.88,8.81,37.24
-2.75,0.4,11.03,37.24
1.33,-0.02,10.23,37.24
3.61,-1.24,8.22,37.27
2.21,-1.56,7.37,37.25
-2.52,0.66,8.59,37.27
-1.71,0.46,11.52,37.25
1.59,-0.43,10.32,37.28
5.39,-0.65,6.84,37.24
3.32,-1.09,7.3,37.27
-1.82,1.18,8.15,37.24
-0.83,1.13,10.9,37.27
3.28,-1.4,10.51,37.22
4.55,-1.44,7.7,37.26
2.44,-0.73,7.05,37.26
-0.91,0.99,9.18,37.27
-0.12,1.05,10.82,37.26
4.27,-0.74,10.29,37.24
4.52,-2.16,8.09,37.27
3.52,-0.38,6.97,37.27
-1.41,0.98,9.08,37.23
1.01,0.9,10.73,37.27
3.85,-1.4,10.71,37.28
5.05,-1.67,7.54,37.25
2.55,-1.41,7.65,37.25
-0.57,0.54,10.01,37.24
1.52,1.47,10.12,37.26
3.79,-0.9,11.34,37.22
6.23,-2.02,7.97,37.27
-1.44,0.75,11.02,37.26
1.04,-0.63,11.25,37.25
4.79,-1.34,7.85,37.23
1.31,-1.7,8.21,37.27
-3.45,0.65,9.69,37.25
-1.02,0.64,11.21,37.26
2.67,-0.07,9.84,37.3
3.83,-2.0,7.88,37.25
0.69,-0.84,7.45,37.23
-3.26,0.55,10.03,37.23
-2.21,0.87,10.85,37.25
0.81,-0.26,10.81,37.25
2.91,-0.57,8.47,37.26
4.04,-1.91,7.42,37.24
-3.05,0.21,8.28,37.29
-3.03,1.06,10.48,37.27
0.83,0.01,10.14,37.27
2.58,-0.94,8.32,37.25
3.17,-1.59,7.05,37.24
-2.58,0.29,8.48,37.25
-3.16,1.04,10.86,37.28
0.72,-0.52,10.73,37.25
4.71,-1.0,7.43,37.22
3.68,-1.18,6.64,37.26
-1.53,0.7,8.35,37.29
-2.58,1.3,10.07,37.29
0.78,-0.56,10.67,37.29
4.4,-1.41,8.36,37.3
3.77,-1.46,7.42,37.26
-0.4,0.21,8.53,37.26
-1.3,0.93,10.62,37.25
2.57,-0.87,10.84,37.27
5.87,-2.1,7.84,37.28
3.1,-1.38,7.21,37.3
-0.33,0.65,8.54,37.26
0.11,1.14,10.49,37.25
2.79,-0.17,10.63,37.28
4.17,-1.59,7.6,37.25
3.55,-1.08,7.6,37.26
0.82,0.46,10.78,37.25
4.71,-1.29,9.11,37.28
3.33,-2.05,8.34,37.25
-2.37,0.16,9.05,37.32
-1.07,0.88,10.57,37.23
0.08,0.61,10.32,37.27
4.71,-0.6,8.58,37.25
2.55,-2.32,8.71,37.28
-2.36,1.72,8.28,37.26
-1.41,0.25,10.96,37.23
1.45,0.95,9.74,37.27
3.69,-1.02,8.04,37.26
3.71,-1.61,7.48,37.29
-2.2,0.73,8.95,37.28
-1.84,0.26,11.47,37.31
2.29,-0.14,10.15,37.28
4.53,-1.92,8.62,37.27
2.71,-0.94,6.81,37.25
-2.76,0.47,9.47,37.25
-1.17,0.52,10.75,37.23
1.88,0.08,9.62,37.27
4.08,-1.96,8.78,37.27
2.63,-0.7,6.78,37.25
-2.29,1.09,8.71,37.26
-0.19,0.68,10.92,37.23
2.43,-1.2,10.07,37.29
4.98,-1.52,7.87,37.28
3.53,-0.99,6.62,37.23
-0.54,0.37,8.83,37.25
-0.13,1.3,10.52,37.24
3.62,-1.47,10.16,37.24
4.43,-1.59,7.45,37.28
3.26,-1.38,7.26,37.27
-0.08,0.38,8.88,37.24
0.46,0.94,10.06,37.22
4.22,-1.44,9.84,37.22
4.61,-1.86,8.19,37.27
3.08,-1.11,7.67,37.25
0.28,0.83,9.54,37.27
1.47,1.19,10.1,37.23
3.71,-1.86,7.98,37.24
1.0,0.02,7.03,37.25
-2.77,1.17,9.78,37.22
-0.6,0.0,11.04,37.25
2.65,-0.43,8.3,37.26
3.73,-1.58,7.23,37.29
0.66,-0.41,7.22,37.22
-3.49,1.13,9.27,37.27
0.19,0.82,10.17,37.2
2.37,-1.1,8.9,37.26
4.39,-0.78,6.7,37.26
1.65,-1.13,7.75,37.24
-1.58,1.71,8.43,37.23
0.7,-0.1,11.01,37.24
3.69,-2.13,9.59,37.26
4.38,-1.41,7.64,37.27
3.51,-2.11,7.31,37.27
-0.47,1.88,8.86,37.27
-2.05,0.79,10.89,37.26
4.79,-0.95,6.89,37.27
3.53,-1.23,7.25,37.23
-0.28,0.7,7.56,37.25
-2.07,1.12,10.45,37.23
1.88,-0.52,10.55,37.25
4.17,-1.1,8.44,37.24
3.32,-1.45,7.26,37.23
-0.82,0.53,8.3,37.25
-1.36,0.45,10.83,37.27
2.63,-0.18,9.83,37.21
4.4,-1.45,8.13,37.28
4.39,-0.95,6.86,37.26
-0.03,0.27,8.89,37.23
1.35,1.14,10.01,37.23
2.55,-0.12,10.88,37.21
5.81,-1.98,7.8,37.26
4.7,-1.21,7.58,37.2
0.21,-0.32,9.51,37.26
0.56,1.26,9.8,37.27
3.31,-0.42,10.79,37.25
-2.63,0.06,10.63,37.26
-0.8,0.72,10.65,37.25
2.19,-0.85,9.94,37.27
4.81,-1.7,8.13,37.25
-0.47,-0.23,7.6,37.25
-3.17,1.22,10.3,37.27
0.02,-0.14,11.29,37.24
3.38,0.11,7.9,37.27
4.19,-1.78,7.75,37.23
0.54,-0.27,7.6,37.29
-2.94,1.89,9.71,37.24
0.35,-0.43,11.47,37.26
3.11,-0.83,8.53,37.23
3.91,-1.17,6.63,37.25
0.43,-0.16,7.63,37.24
-3.0,1.38,9.56,37.25
1.14,0.73,10.21,37.26
3.91,-2.06,9.16,37.22
4.06,-0.74,6.44,37.28
0.64,-0.47,8.26,37.2
-1.04,1.2,9.3,37.28
1.63,0.35,10.62,37.22
4.11,-1.58,8.97,37.27
3.76,-0.85,7.02,37.23
0.6,-0.2,8.09,37.21
0.43,1.28,9.26,37.25
2.11,0.5,10.27,37.23
5.9,-2.01,9.32,37.23
4.39,-1.22,7.38,37.27
0.94,-0.51,8.47,37.22
0.92,0.76,10.15,37.21
3.49,0.53,9.91,37.25
6.14,-2.4,9.02,37.23
4.13,-1.83,7.95,37.24
0.48,-0.57,9.35,37.2
0.59,1.14,10.39,37.22
2.49,-0.26,10.84,37.26
5.73,-1.58,8.52,37.24
3.36,-1.26,7.66,37.22
-0.98,-0.25,10.29,37.24
-0.67,0.9,10.2,37.26
1.9,-0.08,10.41,37.25
5.28,-2.26,9.04,37.28
2.88,-1.99,8.25,37.26
-1.6,1.0,8.97,37.27
-0.22,-0.48,11.41,37.22
0.4,0.69,10.24,37.25
4.71,-1.74,9.35,37.22
1.95,-1.94,8.24,37.24
-3.11,1.22,8.89,37.24
-0.82,0.11,11.2,37.24
1.42,0.15,10.08,37.23
4.89,-1.84,8.43,37.2
2.33,-2.02,7.86,37.22
-2.24,1.53,9.13,37.24
-0.7,0.28,11.08,37.26
1.83,-0.41,9.63,37.22
3.99,-1.49,8.17,37.24
2.7,-0.76,7.31,37.22
-3.39,1.18,9.06,37.26
-1.91,0.89,10.91,37.21
-0.23,0.07,10.75,37.24
2.33,-0.86,8.79,37.2
1.73,-1.36,8.0,37.29
-1.0,0.91,6.99,37.24
-2.38,0.34,10.54,37.22
-0.1,-0.33,10.46,37.22
3.26,-0.68,7.95,37.24
4.57,-1.82,7.39,37.27
-0.45,0.76,7.5,37.27
-2.88,1.42,9.54,37.25
1.53,-0.78,11.25,37.23
3.21,-1.47,8.68,37.18
4.29,-0.89,6.2,37.27
0.83,-0.23,8.08,37.28
-1.49,1.03,9.76,37.24
1.54,-0.02,10.52,37.23
4.45,-1.73,8.2,37.21
0.34,-0.25,8.6,37.25
0.19,1.42,9.44,37.21
1.82,-0.21,11.62,37.24
4.17,-2.56,8.67,37.23
4.23,-0.66,7.15,37.19
0.72,-0.69,9.02,37.23
0.51,1.33,9.23,37.26
2.65,-0.37,10.86,37.23
6.95,-2.32,9.03,37.23
3.33,-1.24,7.49,37.25
-0.09,-0.33,8.89,37.21
0.93,1.23,9.9,37.19
2.52,-0.08,10.97,37.23
5.5,-1.36,8.35,37.25
3.68,-1.64,8.04,37.26
-1.37,0.36,9.27,37.2
-0.55,0.86,10.2,37.24
1.3,-0.42,10.63,37.23
4.92,-1.39,8.77,37.24
3.48,-1.59,7.73,37.26
-2.5,0.52,9.79,37.28
-0.0,0.51,11.12,37.2
1.64,0.2,10.62,37.25
4.77,-1.47,8.74,37.22
2.0,-1.43,7.92,37.25
-2.4,0.73,10.05,37.18
-0.63,0.41,11.29,37.28
2.32,0.73,9.49,37.24
5.3,-1.73,8.27,37.2
1.03,-1.05,7.36,37.21
-2.48,1.45,8.85,37.22
-1.4,0.25,11.6,37.25
2.96,-0.05,9.4,37.27
5.18,-1.13,7.53,37.21
2.0,-0.97,7.24,37.26
-2.36,1.11,9.49,37.26
0.19,0.06,11.11,37.25
1.72,-0.44,9.13,37.21
3.57,-1.26,7.78,37.21
2.32,-1.09,7.22,37.26
-1.63,1.06,10.02,37.27
2.79,-0.49,10.6,37.22
4.87,-1.35,8.03,37.25
4.07,-1.61,7.13,37.23
0.39,0.22,8.51,37.22
-0.45,1.56,9.33,37.23
3.2,-0.18,10.92,37.2
4.88,-2.44,8.11,37.26
3.65,-0.95,6.44,37.22
0.63,-0.08,8.77,37.21
1.06,0.98,9.63,37.23
2.86,-0.05,10.51,37.25
6.44,-2.35,8.19,37.25
2.51,-1.31,7.59,37.24
0.11,0.83,8.45,37.27
0.56,0.65,10.23,37.21
3.14,-0.21,10.74,37.22
5.58,-1.85,8.03,37.21
1.61,-1.17,7.52,37.21
4.57,-1.68,7.53,37.24
-0.65,-1.11,8.42,37.24
-3.06,1.94,9.34,37.17
0.22,-0.14,10.37,37.19
2.23,-0.72,8.76,37.26
4.7,-1.84,7.19,37.21
-0.34,-0.28,7.6,37.22
-2.43,1.4,9.42,37.22
0.59,-0.78,11.74,37.22
3.47,-0.39,7.76,37.21
4.29,-1.47,7.66,37.23
1.33,-0.74,8.04,37.23
-1.94,0.74,9.22,37.21
-0.49,0.63,11.04,37.22
2.61,-0.75,10.56,37.22
5.34,-1.18,7.74,37.2
3.6,-1.21,6.91,37.19
-1.28,1.46,8.09,37.24
-0.16,1.52,10.58,37.17
3.53,-1.22,11.33,37.25
1.45,0.05,8.11,37.23
-0.39,-0.07,9.4,37.26
-0.4,1.29,9.35,37.2
5.33,-1.5,10.3,37.19
5.29,-1.52,7.45,37.2
2.99,-0.43,7.38,37.21
-0.61,0.86,8.9,37.22
1.39,1.36,10.4,37.24
4.25,-1.01,10.46,37.19
3.79,-1.31,7.33,37.21
2.16,-0.15,7.39,37.22
-1.32,-0.46,10.28,37.25
0.34,1.61,9.48,37.23
3.86,-0.87,10.41,37.25
5.99,-1.87,8.41,37.29
1.75,-1.07,8.86,37.21
-0.45,0.37,9.7,37.25
1.41,0.75,10.01,37.22
3.97,-0.83,10.36,37.22
6.17,-1.45,7.14,37.22
1.06,-0.98,8.26,37.22
-0.14,-0.25,10.48,37.24
1.23,1.29,9.96,37.22
4.53,-0.97,10.23,37.22
5.63,-1.62,7.78,37.23
-0.19,-0.42,8.25,37.24
-1.22,0.59,9.92,37.22
1.29,0.21,11.19,37.23
3.22,-0.67,10.35,37.23
5.33,-2.5,8.49,37.25
-0.03,-1.0,8.37,37.24
-3.17,0.7,10.68,37.24
0.55,0.15,11.09,37.28
2.52,-0.91,10.36,37.22
4.22,-1.62,7.55,37.24
-1.22,-0.26,8.41,37.21
-4.41,0.62,11.04,37.21
-0.22,1.24,10.14,37.21
1.47,-0.47,9.38,37.24
-4.35,0.21,9.76,37.24
-2.55,0.78,10.68,37.22
1.13,-0.65,10.36,37.24
2.13,-1.02,7.69,37.18
0.89,-0.42,7.38,37.19
-3.03,0.26,9.62,37.26
-1.57,0.47,11.01,37.21
1.55,-0.68,9.55,37.19
4.14,-2.02,9.04,37.22
2.11,-1.35,6.85,37.19
-2.85,0.65,8.81,37.24
-1.05,1.19,10.56,37.23
1.71,-0.36,10.18,37.2
4.44,-1.57,7.98,37.21
2.88,-1.23,7.49,37.19
-2.91,0.73,8.95,37.19
-0.4,1.68,10.47,37.25
2.45,-1.28,10.01,37.21
4.53,-1.58,7.56,37.22
2.23,-0.78,6.96,37.21
-1.48,1.1,8.53,37.2
0.35,1.07,11.12,37.17
3.63,-1.13,9.16,37.21
6.02,-1.05,7.59,37.21
3.3,-1.29,7.79,37.2
-0.13,1.31,8.67,37.2
0.78,1.03,10.36,37.16
4.46,-1.2,9.72,37.24
5.55,-1.47,7.27,37.19
3.29,-0.49,7.35,37.21
-0.38,0.14,9.31,37.21
2.24,1.09,10.04,37.19
4.52,-2.04,10.59,37.21
4.38,-1.86,7.52,37.2
2.25,-0.18,7.8,37.24
-0.25,0.21,10.22,37.21
1.13,1.27,9.82,37.24
2.88,0.04,11.26,37.19
5.63,-2.54,9.3,37.22
3.43,-0.44,6.58,37.21
2.52,-1.75,7.75,37.2
-2.27,0.47,8.62,37.22
-1.57,0.34,11.44,37.17
1.76,-0.35,10.11,37.2
4.4,-0.74,7.92,37.21
2.68,-2.26,8.22,37.25
-2.64,0.29,8.67,37.22
-1.23,0.47,11.24,37.2
0.77,-0.03,10.41,37.24
4.11,-0.43,7.61,37.18
4.6,-1.51,7.01,37.25
-0.85,0.83,8.12,37.22
-1.43,1.52,9.97,37.2
3.83,-0.98,10.32,37.2
4.56,-1.64,8.19,37.21
2.82,-0.94,6.92,37.2
-0.68,0.62,8.36,37.2
-0.88,0.51,10.81,37.19
3.6,-0.26,9.36,37.22
5.77,-2.09,7.99,37.18
2.5,-0.85,6.87,37.22
-0.2,0.68,8.58,37.21
1.2,0.7,10.6,37.26
3.63,-0.86,10.5,37.23
5.36,-1.75,7.96,37.22
2.63,-1.71,8.01,37.22
-0.7,0.73,9.36,37.23
0.72,1.53,10.3,37.21
4.34,-0.74,10.88,37.2
6.24,-1.2,7.39,37.27
1.98,-1.54,8.51,37.22
-0.08,0.83,9.61,37.18
0.9,0.91,11.2,37.26
3.44,-0.83,10.88,37.2
6.41,-2.07,8.09,37.22
1.04,-1.04,8.64,37.21
-1.11,0.98,10.04,37.21
0.95,1.02,11.21,37.22
-1.55,0.56,8.5,37.18
-3.44,0.78,9.35,37.24
-0.79,1.0,11.07,37.22
2.07,-1.33,10.18,37.15
3.82,-1.25,7.55,37.25
1.47,-1.03,7.76,37.19
-3.01,0.82,9.81,37.17
0.12,0.36,10.93,37.21
2.81,-0.21,8.71,37.22
3.06,-1.04,7.32,37.2
1.88,-0.89,7.26,37.21
-2.49,0.47,9.37,37.21
0.14,1.04,10.18,37.21
3.7,-1.18,9.4,37.22
4.62,-2.07,8.27,37.19
1.59,-0.2,6.86,37.19
-0.79,1.13,9.47,37.2
0.57,0.84,10.29,37.18
3.73,-0.85,8.9,37.22
4.58,-1.91,7.92,37.24
1.09,-0.35,7.26,37.19
-0.43,0.97,9.11,37.19
1.62,0.58,10.83,37.17
4.84,-1.94,9.49,37.24
4.77,-1.59,7.25,37.18
1.85,-0.62,8.36,37.2
0.78,0.58,9.95,37.22
1.93,0.22,10.6,37.17
5.47,-1.72,9.76,37.24
4.3,-1.38,7.97,37.18
1.22,-0.7,8.55,37.21
-0.02,0.77,9.57,37.23
1.84,1.27,9.71,37.19
5.26,-1.27,9.8,37.18
5.32,-2.22,8.2,37.18
1.14,0.06,8.56,37.23
-0.45,0.06,9.77,37.2
0.55,1.05,10.2,37.23
4.85,-1.65,9.97,37.21
4.71,-2.26,8.63,37.16
-0.48,0.1,8.92,37.21
-0.07,0.33,10.24,37.2
0.98,1.13,10.47,37.2
5.13,-1.47,9.73,37.23
4.43,-2.32,8.53,37.22
-1.45,0.36,8.45,37.19
-1.46,-0.03,11.14,37.22
0.57,0.86,11.27,37.21
3.57,-1.8,9.36,37.19
5.06,-1.92,8.77,37.21
1.61,-0.45,7.68,37.22
-2.51,0.79,9.96,37.19
-0.49,0.07,11.27,37.2
1.62,-0.16,10.37,37.19
4.67,-1.21,7.61,37.19
0.41,-1.21,8.12,37.22
-2.63,-0.01,10.47,37.22
-0.57,0.4,11.26,37.17
2.1,-0.12,9.8,37.24
3.02,-0.94,8.98,37.23
2.87,-0.76,7.59,37.19
2.56,-1.3,7.05,37.22
-2.58,0.06,8.93,37.19
-1.81,1.06,10.46,37.22
1.83,-0.8,10.23,37.16
4.02,-1.36,7.91,37.22
2.57,-0.97,6.81,37.21
-1.89,1.21,8.4,37.21
-1.79,1.0,10.91,37.19
2.19,-1.09,10.0,37.24
3.64,-1.48,7.87,37.22
2.08,-1.15,6.75,37.2
-1.42,0.88,8.8,37.19
-0.59,0.5,11.04,37.18
2.9,-0.82,10.35,37.2
5.53,-1.75,7.91,37.19
2.36,-1.59,8.07,37.18
-0.99,0.54,8.75,37.21
1.23,0.89,10.16,37.18
2.99,-1.04,10.69,37.16
4.86,-1.45,7.55,37.18
2.76,-1.48,8.31,37.21
-0.17,1.0,8.47,37.18
0.84,1.23,10.1,37.22
3.29,-0.62,10.09,37.18
5.59,-1.85,7.47,37.2
2.31,-1.58,8.04,37.17
-0.97,0.68,9.1,37.18
2.04,1.07,10.77,37.21
3.55,-0.9,10.65,37.17
5.91,-1.19,7.97,37.18
2.66,-1.58,8.48,37.2
0.1,0.66,9.44,37.19
1.32,1.26,9.78,37.19
4.21,-0.28,10.56,37.19
6.67,-2.57,7.96,37.2
-0.17,-0.05,8.0,37.21
-0.57,0.7,10.29,37.18
0.31,0.61,11.02,37.19
3.39,-0.68,9.92,37.2
5.16,-1.82,8.34,37.18
0.67,0.09,8.43,37.2
-1.57,0.55,10.45,37.21
0.58,0.62,10.57,37.18
2.3,-0.41,9.73,37.21
4.74,-1.29,7.71,37.2
-0.72,0.37,7.96,37.23
-2.99,0.31,11.1,37.21
0.99,0.04,11.44,37.21
2.79,-0.7,9.02,37.17
4.97,-1.87,7.78,37.16
-1.32,-0.05,7.94,37.18
-3.55,1.36,10.14,37.18
-0.44,-0.02,11.23,37.2
2.0,-0.42,8.51,37.19
4.12,-1.06,7.06,37.21
-0.6,-0.28,7.43,37.22
-3.2,2.17,9.37,37.23
0.37,-0.6,11.53,37.22
3.55,-1.63,8.75,37.16
4.6,-1.81,7.32,37.21
-0.45,-0.41,7.69,37.21
-3.7,1.54,10.41,37.22
0.97,-0.87,11.63,37.21
3.63,-1.12,8.36,37.22
4.09,-1.34,6.99,37.19
0.31,-0.19,8.15,37.15
-1.58,1.14,9.64,37.22
1.77,-0.37,10.75,37.2
2.22,-0.31,9.01,37.18
5.01,-1.07,7.29,37.19
2.47,-0.93,7.16,37.19
0.76,1.94,8.73,37.21
-1.13,0.59,11.41,37.18
2.21,-1.07,9.89,37.22
4.87,-1.06,7.29,37.18
2.44,-1.86,8.45,37.19
-1.08,0.51,9.09,37.21
-0.38,0.99,11.0,37.17
3.86,-0.8,9.9,37.19
4.23,-1.59,7.7,37.21
2.46,-0.45,7.33,37.21
-0.28,0.55,9.42,37.2
0.83,0.98,10.41,37.17
3.71,-0.85,9.28,37.18
4.97,-2.42,8.51,37.2
2.95,-0.97,8.18,37.24
-0.59,0.41,9.86,37.19
0.98,0.45,11.12,37.21
4.12,-1.27,10.0,37.18
5.02,-1.5,8.06,37.22
1.74,-0.18,7.84,37.23
-0.8,0.74,9.49,37.19
1.61,0.85,10.39,37.22
4.17,-1.09,10.21,37.2
6.44,-1.73,7.32,37.19
0.06,-0.63,9.0,37.22
-0.35,-0.25,10.54,37.2
1.14,1.48,9.96,37.2
3.98,-0.96,10.31,37.16
5.19,-1.51,7.45,37.18
0.02,-0.85,8.6,37.19
-2.6,-0.15,10.51,37.21
-0.1,1.09,9.98,37.24
2.79,-1.15,9.79,37.19
3.18,-1.77,7.51,37.17
-0.79,0.03,8.33,37.22
-1.91,0.03,11.06,37.19
0.79,0.72,10.29,37.17
3.17,-0.92,8.95,37.22
4.75,-1.39,7.19,37.15
-1.9,-0.76,9.11,37.22
-2.91,0.91,10.72,37.19
1.36,-0.54,11.21,37.22
2.88,-1.15,9.23,37.14
4.1,-1.47,7.1,37.19
-1.97,0.05,8.72,37.2
-1.75,1.08,9.95,37.17
0.36,0.37,10.39,37.19
2.91,-1.04,8.54,37.19
4.23,-1.2,7.56,37.22
-1.74,-0.39,7.8,37.22
-2.93,0.93,10.67,37.15
0.52,-0.41,11.06,37.19
2.97,-0.86,8.42,37.2
3.47,-1.19,6.96,37.17
-1.41,0.5,7.67,37.18
-3.38,1.06,10.5,37.18
0.37,-0.18,11.06,37.12
4.21,-1.64,8.66,37.17
2.91,-1.85,7.47,37.18
-1.04,1.18,7.06,37.16
-2.21,0.85,11.04,37.21
1.77,0.25,10.97,37.2
6.13,-1.9,8.14,37.14
3.13,-1.53,7.28,37.14
-0.45,1.58,7.05,37.19
-3.63,2.0,10.33,37.19
-1.43,0.48,11.14,37.18
1.91,-0.8,10.09,37.19
3.78,-1.24,7.35,37.19
2.33,-1.07,7.48,37.19
-3.54,0.48,9.84,37.18
0.16,0.67,10.76,37.17
3.01,-2.14,10.47,37.17
4.44,-1.11,7.15,37.16
2.06,-0.26,6.39,37.19
-1.83,1.06,9.07,37.18
-0.45,0.39,10.87,37.17
3.39,-1.43,9.99,37.19
5.53,-1.93,7.63,37.17
1.47,-1.05,7.64,37.18
-1.32,1.25,9.05,37.14
0.34,0.48,11.23,37.18
3.35,-1.82,9.57,37.21
4.51,-1.21,7.2,37.19
1.84,-1.62,9.03,37.18
1.05,-0.45,9.15,37.18
0.69,1.19,10.22,37.15
1.47,-0.52,11.33,37.21
3.49,-1.54,8.64,37.16
4.07,-1.19,7.68,37.17
-0.8,1.3,9.06,37.11
-0.51,1.24,9.82,37.18
1.36,0.06,10.79,37.19
4.77,-1.97,8.59,37.19
3.35,-1.34,7.44,37.14
-0.83,0.23,9.33,37.18
-0.24,1.01,10.39,37.15
1.9,-0.13,10.48,37.18
5.16,-1.23,8.21,37.13
3.73,-1.16,7.81,37.2
-0.26,-0.06,9.52,37.17
0.3,1.3,10.13,37.16
3.27,-0.22,10.71,37.18
5.75,-1.69,8.31,37.19
2.77,-1.07,8.03,37.2
-0.35,-0.44,10.53,37.16
-0.28,1.05,10.13,37.15
2.44,-0.19,10.56,37.18
4.49,-2.19,9.12,37.17
2.6,-0.62,7.2,37.15
-2.4,0.14,9.94,37.21
-1.25,1.03,10.44,37.21
1.76,-0.7,11.09,37.17
5.33,-1.81,8.36,37.17
2.26,-1.73,7.77,37.2
-3.72,0.97,10.13,37.22
-0.29,0.47,10.57,37.16
1.66,0.04,9.96,37.19
4.57,-1.77,7.55,37.15
1.02,-0.92,7.91,37.12
-2.78,0.97,9.42,37.18
-1.07,0.4,11.47,37.2
0.96,-0.62,10.16,37.19
-2.21,0.05,8.44,37.15
-3.27,0.24,11.04,37.15
0.42,0.11,10.88,37.19
2.58,-0.66,8.68,37.19
4.36,-2.09,7.82,37.17
-2.02,0.02,8.43,37.19
-3.73,0.3,10.49,37.18
-0.49,-0.1,11.2,37.17
2.42,-1.22,8.54,37.16
3.06,-1.27,7.65,37.14
-2.66,-0.01,8.9,37.18
-2.95,1.16,10.71,37.2
0.06,-0.64,10.81,37.16
3.09,-0.39,7.58,37.15
3.77,-1.55,7.71,37.16
-1.52,0.58,8.38,37.19
-3.0,0.88,10.72,37.18
0.59,-0.56,11.33,37.2
4.72,-1.22,8.08,37.19
3.89,-1.79,8.15,37.2
-0.35,0.62,7.84,37.18
-1.1,1.59,9.72,37.15
1.57,-0.53,10.53,37.19
4.65,-0.75,7.68,37.15
4.49,-1.66,7.46,37.17
-0.06,0.17,8.35,37.16
-0.64,1.07,10.03,37.22
2.92,-0.93,11.43,37.15
5.23,-1.72,7.72,37.15
3.75,-0.85,7.09,37.12
-0.37,0.35,8.48,37.14
0.26,1.34,9.45,37.16
2.81,-0.16,10.02,37.15
5.23,-1.87,7.84,37.18
3.22,-0.51,7.31,37.14
0.51,-0.13,9.06,37.2
0.99,1.14,9.94,37.19
2.56,-0.86,10.54,37.17
5.74,-2.4,8.74,37.16
0.77,0.91,10.77,37.17
5.1,-1.41,9.0,37.17
4.22,-2.22,8.36,37.17
-1.73,0.62,9.07,37.19
-1.25,0.81,10.99,37.16
0.72,0.82,10.36,37.14
3.34,-1.7,9.04,37.18
2.75,-1.24,7.63,37.19
-1.66,1.03,9.1,37.18
-1.98,0.21,10.61,37.18
0.02,0.72,10.39,37.14
1.99,-0.94,10.56,37.11
5.3,-1.47,7.81,37.15
0.17,-0.83,7.94,37.18
-3.79,0.37,10.53,37.16
-0.6,0.75,11.23,37.15
2.03,-1.08,9.91,37.16
4.41,-1.56,7.57,37.14
-0.74,-1.12,8.04,37.18
-3.06,1.47,9.8,37.17
-1.34,0.21,11.28,37.18
0.98,-0.86,9.47,37.14
4.18,-0.95,7.16,37.13
0.91,-1.46,8.18,37.15
-3.26,2.27,9.24,37.16
-1.3,-0.07,10.88,37.16
3.27,-0.98,9.1,37.17
4.15,-1.0,7.48,37.13
0.3,-0.75,8.07,37.13
-3.04,1.07,9.62,37.16
-0.4,-0.39,10.87,37.14
2.67,-0.96,8.8,37.17
3.77,-1.15,7.41,37.15
0.7,-0.85,7.89,37.17
-1.87,1.87,8.77,37.18
-0.08,-0.28,11.53,37.13
2.59,-1.21,8.98,37.11
4.52,-1.5,7.72,37.18
0.82,-0.48,8.11,37.17
-0.96,1.45,9.1,37.18
0.86,0.51,10.98,37.16
4.62,-1.98,8.6,37.16
4.57,-1.46,7.62,37.17
0.57,-0.17,7.81,37.17
-0.71,1.04,9.7,37.19
2.24,-0.11,11.29,37.14
5.68,-1.38,8.78,37.17
4.55,-1.74,7.99,37.12
0.77,-0.34,8.87,37.11
-0.28,1.19,10.03,37.16
2.76,-0.03,10.77,37.18
5.68,-1.42,8.96,37.15
4.21,-1.35,7.83,37.14
0.68,0.06,8.89,37.16
-0.03,0.57,10.57,37.14
2.37,0.13,10.86,37.18
5.25,-1.75,9.65,37.17
5.28,-1.41,7.51,37.15
-1.12,0.35,9.32,37.17
4.34,-1.28,8.37,37.17
2.81,-1.21,7.47,37.16
-2.88,0.58,9.66,37.2
-0.82,0.45,10.87,37.16
2.08,-0.52,10.06,37.11
3.46,-1.48,8.03,37.12
2.15,-1.08,7.24,37.15
-2.92,0.52,9.53,37.21
-0.36,0.77,10.74,37.11
1.55,-0.28,9.86,37.1
4.02,-1.33,8.28,37.16
2.81,-0.78,7.27,37.15
-1.19,0.91,8.64,37.15
-0.02,0.74,10.46,37.14
2.73,-1.16,10.11,37.18
5.02,-1.59,8.46,37.16
2.99,-0.82,7.23,37.18
-0.93,0.74,8.62,37.11
-0.33,1.36,10.37,37.11
3.88,-0.88,10.08,37.15
5.15,-1.72,7.86,37.17
2.16,-0.75,7.33,37.17
-0.24,1.22,8.86,37.19
0.94,0.99,10.3,37.17
4.04,-1.11,9.89,37.14
5.42,-1.64,7.63,37.16
2.28,-1.29,8.26,37.1
-0.23,0.44,9.67,37.13
0.65,1.08,10.55,37.17
3.77,-1.17,10.72,37.16
6.36,-2.31,8.19,37.15
1.03,-0.4,7.97,37.16
-0.97,0.75,9.72,37.14
0.86,0.63,10.72,37.14
3.64,-1.1,10.04,37.16
5.6,-1.89,7.57,37.15
3.52,-1.12,7.73,37.11
-0.57,-0.0,10.94,37.12
0.58,1.17,10.65,37.19
3.15,-0.58,10.61,37.15
5.97,-1.89,8.88,37.13
4.24,-1.92,8.06,37.19
-0.37,-0.09,8.69,37.17
-0.71,1.17,9.61,37.15
1.66,0.17,11.04,37.14
5.24,-1.59,8.89,37.14
5.11,-1.13,7.64,37.14
-0.67,-0.29,9.15,37.1
-0.26,1.41,10.1,37.14
1.86,-0.82,11.46,37.13
4.99,-1.51,8.82,37.14
4.98,-1.38,7.37,37.15
-1.45,0.09,9.57,37.18
-0.41,0.57,10.02,37.17
1.58,-0.06,9.98,37.14
4.03,-0.97,8.55,37.14
3.63,-1.67,7.92,37.12
-1.94,0.12,9.62,37.1
-0.87,0.69,10.44,37.13
0.63,-0.07,10.96,37.14
4.28,-1.9,9.05,37.11
3.22,-1.52,7.55,37.12
-2.04,0.77,8.83,37.16
-1.92,0.34,11.15,37.15
1.13,0.32,9.83,37.14
3.3,-1.14,8.2,37.14
2.79,-1.35,7.32,37.15
-3.64,0.85,8.78,37.15
-2.12,0.81,10.75,37.17
1.29,-0.21,10.64,37.07
3.17,-1.61,8.1,37.11
2.72,-1.29,7.36,37.21
-2.83,0.21,9.05,37.14
-1.85,1.62,10.07,37.16
1.64,-0.98,10.79,37.15
3.83,-1.89,8.05,37.14
2.84,-0.95,6.76,37.14
-2.1,0.53,8.84,37.16
-1.2,1.49,10.39,37.18
2.56,-1.1,10.42,37.15
5.14,-1.41,7.88,37.16
2.97,-1.0,6.84,37.14
-0.92,0.57,9.1,37.16
-0.27,1.3,9.95,37.15
3.48,-1.19,10.56,37.16
4.33,-1.16,7.69,37.12
3.2,-1.09,7.65,37.15
-1.3,0.24,9.64,37.12
0.95,1.72,8.96,37.17
3.94,-1.8,10.94,37.16
4.64,-2.09,7.69,37.17
2.55,-0.63,7.45,37.16
-0.21,0.29,9.74,37.17
0.32,0.5,10.45,37.15
3.58,-0.88,9.98,37.13
6.63,-2.73,7.97,37.12
0.4,-0.57,7.92,37.13
-0.7,0.3,9.41,37.12
0.56,0.82,10.13,37.15
3.35,-0.45,9.87,37.17
5.97,-2.28,8.04,37.12
0.66,-0.82,8.04,37.13
-1.27,0.65,9.89,37.16
1.09,0.17,11.36,37.18
3.24,-1.09,9.82,37.16
4.96,-2.43,8.16,37.17
0.62,-0.72,8.18,37.13
-2.29,1.13,10.7,37.12
1.25,-0.11,11.02,37.15
2.42,-0.62,9.19,37.13
5.26,-1.58,7.54,37.12
-0.04,-1.0,8.41,37.12
-2.6,1.64,9.94,37.11
0.43,0.03,11.11,37.12
1.87,-0.6,9.36,37.12
4.4,-1.54,7.52,37.15
-0.74,-0.79,8.64,37.13
-2.71,0.52,10.83,37.14
0.31,0.48,10.77,37.14
2.89,-1.23,9.26,37.13
4.29,-1.47,7.46,37.14
0.93,-0.24,7.84,37.13
-2.53,1.99,10.2,37.17
1.14,-0.82,11.67,37.13
3.63,-0.66,8.4,37.13
4.5,-1.35,7.27,37.09
2.94,-0.63,7.35,37.12
-1.86,0.7,8.66,37.11
-1.2,1.25,10.54,37.13
1.79,-1.25,9.99,37.13
4.37,-1.26,7.44,37.16
3.37,-1.39,7.18,37.13
-1.11,1.17,8.26,37.14
-0.39,0.6,10.81,37.12
2.75,-1.56,9.47,37.12
4.76,-1.38,7.69,37.14
2.45,-1.8,7.36,37.11
0.69,-0.28,7.68,37.12
-1.71,0.41,8.07,37.14
-2.57,0.8,10.79,37.13
0.03,0.25,10.59,37.15
3.15,-1.49,8.65,37.14
3.17,-1.53,7.35,37.12
-1.81,0.32,8.37,37.14
-2.53,0.77,10.96,37.12
0.72,0.1,10.56,37.11
3.73,-0.91,8.18,37.15
3.41,-1.8,7.22,37.16
-1.6,1.44,7.85,37.13
-2.21,1.21,10.15,37.09
1.99,-0.67,10.76,37.12
4.63,-1.28,7.73,37.16
4.17,-1.54,7.24,37.12
0.2,0.22,8.54,37.09
-0.98,1.11,9.32,37.09
2.88,-0.76,11.01,37.14
4.3,-2.26,8.26,37.1
3.6,-1.04,7.43,37.14
0.07,0.0,9.22,37.13
0.38,1.61,9.12,37.14
2.77,-0.63,10.98,37.08
5.25,-2.3,7.77,37.15
3.5,-0.35,7.63,37.13
-0.44,-0.34,9.56,37.17
1.14,1.23,10.36,37.13
3.07,-0.72,10.96,37.08
6.82,-1.86,7.92,37.13
2.48,-1.23,8.32,37.14
-0.68,0.34,9.24,37.14
0.74,1.03,10.61,37.12
3.39,-0.48,10.18,37.1
6.13,-1.67,7.97,37.11
0.87,-0.91,7.93,37.13
-0.82,0.32,10.14,37.14
0.7,0.09,11.29,37.13
2.91,0.35,9.73,37.18
5.58,-2.85,9.56,37.17
-1.87,1.32,10.1,37.09
1.38,-0.31,10.96,37.14
3.83,-0.79,8.34,37.13
4.3,-1.81,7.52,37.1
-2.41,0.71,8.56,37.06
-2.66,0.64,11.57,37.12
0.95,-0.6,11.1,37.14
4.02,-2.06,8.63,37.13
2.77,-2.13,7.0,37.08
-3.87,0.55,8.84,37.13
-2.16,1.59,10.73,37.09
0.95,-1.05,10.76,37.12
3.16,-1.14,7.58,37.13
3.2,-0.76,6.22,37.08
-2.93,0.54,8.89,37.1
-1.95,1.48,10.29,37.09
1.67,-0.97,10.4,37.12
3.84,-1.56,7.65,37.11
2.71,-0.99,6.91,37.12
-2.59,0.76,8.09,37.11
-1.41,1.5,10.34,37.13
0.86,-1.04,11.57,37.11
4.19,-0.4,7.68,37.14
4.13,-0.83,7.18,37.07
-1.16,0.0,8.09,37.16
-1.86,1.51,10.56,37.13
1.43,-1.33,10.99,37.12
3.79,-0.94,7.77,37.15
2.74,-1.89,7.39,37.15
-0.37,0.91,8.58,37.12
-0.98,0.85,10.56,37.12
2.53,-0.51,10.32,37.18
4.13,-2.15,8.72,37.15
3.86,-0.02,6.68,37.08
0.09,-0.21,9.28,37.15
0.24,1.34,9.22,37.11
3.08,-0.08,10.41,37.1
4.04,-1.86,9.78,37.08
2.71,-1.72,7.59,37.1
-2.59,0.22,9.88,37.14
-3.22,1.49,10.0,37.13
1.08,-0.11,11.3,37.15
2.18,-0.95,9.67,37.17
4.44,-1.75,7.59,37.09
-1.16,-1.16,8.87,37.1
-2.71,1.35,9.96,37.08
-0.67,-0.48,11.54,37.1
2.55,-0.58,8.92,37.09
4.36,-1.52,7.74,37.13
-0.94,0.56,7.69,37.12
-2.24,1.73,9.42,37.12
-0.08,-0.44,11.76,37.11
3.68,-1.2,9.04,37.1
4.86,-1.3,6.99,37.08
0.16,-0.51,8.5,37.08
-2.76,1.07,10.0,37.11
1.8,-0.45,11.51,37.09
3.63,-2.38,9.39,37.12
-0.03,1.21,10.11,37.07
1.38,1.01,10.26,37.11
4.14,-1.33,9.85,37.11
5.19,-1.55,7.71,37.09
2.36,-1.28,7.79,37.13
-0.16,0.92,9.61,37.1
1.45,0.92,10.68,37.08
4.74,-1.13,10.69,37.08
5.52,-1.69,6.98,37.09
1.53,-0.13,8.09,37.09
-0.92,0.07,10.17,37.09
0.86,1.72,9.54,37.1
4.02,-1.75,10.28,37.1
4.84,-1.71,7.01,37.1
0.08,-0.67,8.48,37.11
-0.82,0.03,10.4,37.1
0.18,0.92,10.45,37.1
3.06,-1.13,9.82,37.12
4.18,-1.93,8.12,37.1
-0.9,-0.36,8.68,37.06
-2.22,0.64,10.59,37.12
-0.06,0.7,10.66,37.09
2.75,-1.24,9.93,37.09
4.48,-2.63,8.7,37.11
-0.11,-0.02,7.92,37.11
-2.57,0.47,10.84,37.14
-0.34,0.37,10.94,37.14
4.19,-1.11,9.14,37.08
4.74,-2.19,7.87,37.14
-2.16,0.38,7.71,37.1
-3.63,0.51,11.52,37.11
-0.11,-0.53,10.83,37.11
2.22,-0.18,8.62,37.07
4.08,-1.81,7.67,37.14
-1.87,-0.48,8.45,37.09
-3.2,1.02,10.41,37.07
1.11,-0.33,11.57,37.13
3.39,-1.21,8.75,37.09
4.41,-1.27,6.96,37.12
0.57,-0.26,7.68,37.1
-2.42,1.69,9.66,37.09
1.01,-0.89,11.39,37.06
4.04,-1.61,8.48,37.12
3.69,-1.76,6.7,37.12
-0.35,-0.1,8.04,37.09
-2.72,0.92,11.47,37.1
2.47,-0.26,10.72,37.06
3.69,-1.88,8.8,37.12
2.71,-0.09,6.45,37.12
0.37,-0.36,8.92,37.1
-2.49,1.39,9.61,37.11
2.26,-0.58,10.92,37.05
5.0,-2.72,9.48,37.09
4.32,-0.64,7.62,37.09
1.71,-0.34,8.61,37.09
0.76,2.01,9.27,37.17
2.18,-0.17,11.39,37.07
6.65,-1.57,8.36,37.08
4.12,-1.5,7.12,37.1
3.0,-1.52,7.57,37.11
0.55,-1.15,8.07,37.06
-3.66,0.32,10.35,37.13
-0.77,-0.23,12.27,37.13
0.79,-0.33,9.81,37.11
5.11,-2.13,8.49,37.09
0.4,-1.62,8.31,37.12
-3.51,1.37,9.46,37.06
-0.59,0.33,11.35,37.09
1.76,-0.18,9.58,37.11
4.68,-1.61,7.91,37.1
0.59,-1.04,8.16,37.11
-3.06,1.29,9.76,37.11
-0.86,-0.22,11.73,37.09
2.22,-1.52,9.79,37.12
4.74,-2.1,7.87,37.16
1.45,-0.55,6.89,37.13
-3.25,0.95,9.9,37.04
-1.38,0.35,11.06,37.14
2.89,-0.96,9.39,37.07
3.72,-2.35,8.21,37.07
0.67,-0.23,6.57,37.1
-3.47,1.42,9.57,37.09
0.24,0.73,10.72,37.09
3.77,-2.54,10.61,37.1
5.09,-1.71,7.35,37.06
0.98,-0.46,7.16,37.07
-1.25,1.73,9.11,37.08
0.58,0.99,11.07,37.08
3.76,-1.87,9.64,37.07
4.9,-0.55,6.78,37.06
1.73,-0.73,8.25,37.1
-0.52,0.99,9.92,37.09
0.87,0.07,11.59,37.08
5.13,-2.32,10.01,37.1
4.13,-1.43,7.78,37.08
0.61,0.04,7.64,37.08
0.34,0.79,10.16,37.07
2.09,0.69,10.43,37.11
3.97,-1.86,7.47,37.12
-0.91,0.24,8.99,37.12
-0.16,0.09,11.17,37.12
0.63,0.34,10.19,37.09
5.05,-1.23,9.0,37.13
4.68,-2.8,8.32,37.13
-1.88,1.28,9.21,37.1
0.53,-0.76,11.41,37.11
2.51,0.07,11.11,37.12
3.96,-1.11,8.86,37.09
4.1,-1.95,8.47,37.1
-2.93,0.71,9.28,37.1
-1.64,0.83,10.41,37.11
0.86,0.44,10.17,37.13
3.3,-0.14,7.97,37.12
2.8,-1.8,7.92,37.08
-3.07,-0.01,9.6,37.09
-2.54,0.54,11.28,37.08
2.35,-0.12,10.43,37.06
3.33,-1.74,8.85,37.06
2.76,-0.79,11.18,37.1
5.53,-1.05,7.28,37.07
3.05,-1.12,8.19,37.08
-0.31,0.1,9.35,37.14
-0.58,1.32,9.5,37.08
2.83,0.22,10.37,37.08
6.22,-2.67,9.46,37.06
2.34,-0.55,7.75,37.11
0.13,-0.51,10.13,37.11
-0.2,0.83,10.68,37.11
3.06,-0.31,10.48,37.13
6.15,-2.44,9.42,37.11
6.36,-1.72,7.41,37.07
1.98,-0.94,8.27,37.09
-0.4,0.68,10.78,37.06
2.13,0.84,10.99,37.11
5.38,-1.59,9.95,37.12
5.95,-1.95,7.33,37.07
0.79,-0.85,8.53,37.08
-0.36,-0.02,10.46,37.07
4.8,-1.13,10.2,37.05
6.23,-2.52,8.83,37.13
4.53,-1.48,7.74,37.1
0.18,0.25,8.37,37.14
-0.92,1.49,10.01,37.11
1.84,0.13,10.77,37.1
6.13,-2.29,8.85,37.11
3.4,-1.51,7.93,37.07
-0.2,-0.79,9.55,37.09
-0.48,1.54,10.42,37.08
2.8,-0.37,11.01,37.09
5.11,-2.1,9.46,37.1
3.64,-1.19,7.88,37.1
-0.81,0.14,9.49,37.06
-0.7,1.17,10.55,37.11
1.77,-0.11,10.49,37.09
5.81,-1.88,8.85,37.08
2.96,-1.67,7.82,37.05
-1.59,0.6,9.31,37.09
3.3,-1.53,7.58,37.09
1.36,-0.43,7.19,37.12
-3.21,1.37,9.41,37.08
-0.67,0.0,10.99,37.07
2.39,-0.75,9.28,37.11
3.6,-1.64,7.54,37.09
1.09,-0.15,7.23,37.07
-2.62,1.13,9.33,37.09
-0.28,0.77,10.95,37.07
2.54,-1.48,9.52,37.09
4.37,-1.56,7.44,37.08
1.54,-0.76,7.16,37.04
-1.26,1.56,8.83,37.09
-0.11,0.42,11.1,37.1
3.81,-1.74,9.52,37.06
4.69,-1.32,7.38,37.09
2.34,-0.97,7.68,37.04
-0.26,1.0,9.29,37.09
1.37,0.85,10.12,37.09
5.46,-2.1,9.95,37.09
4.64,-1.97,7.99,37.03
1.95,0.18,7.73,37.04
-0.18,1.06,9.83,37.08
1.57,0.68,10.4,37.06
4.67,-1.43,9.67,37.07
5.48,-1.69,7.82,37.07
1.48,-0.25,8.42,37.08
-0.53,0.67,9.87,37.07
1.6,0.44,10.66,37.09
4.22,-1.81,10.11,37.08
5.57,-1.51,7.61,37.09
-0.28,-0.44,8.97,37.06
-0.39,0.49,10.75,37.09
1.34,0.44,10.88,37.11
4.08,-1.06,9.59,37.08
4.75,-1.73,7.74,37.05
-1.89,0.05,8.78,37.07
-1.26,0.16,11.16,37.1
0.46,0.19,10.55,37.09
4.82,-2.32,9.1,37.11
2.43,-0.62,7.25,37.02
-2.32,0.28,10.03,37.11
-0.11,0.58,10.73,37.07
2.01,-0.41,9.92,37.09
4.76,-2.2,8.79,37.1
1.22,-1.03,8.07,37.04
-2.95,0.78,9.82,37.09
-1.11,0.04,11.08,37.12
1.1,-0.2,9.74,37.08
4.45,-1.07,7.89,37.08
1.26,-1.78,8.09,37.08
-3.7,1.02,9.69,37.08
-0.98,0.43,11.12,37.11
1.64,-1.34,10.25,37.07
3.83,-1.28,7.48,37.08
1.21,-0.53,7.74,37.09
-1.64,-0.08,8.38,37.07
-2.58,1.08,10.31,37.07
-0.04,0.0,10.53,37.05
2.96,-0.42,8.03,37.07
4.02,-1.65,7.6,37.06
-0.98,0.79,7.33,37.06
-2.85,1.41,10.41,37.09
0.89,-0.89,11.38,37.09
3.6,-1.05,8.39,37.05
4.09,-2.32,7.7,37.09
-0.34,0.08,7.8,37.07
-2.41,1.54,9.66,37.08
1.16,0.03,10.85,37.05
4.34,-1.77,8.37,37.05
4.25,-1.19,6.65,37.07
0.71,-0.0,8.02,37.09
-0.15,0.86,9.85,37.09
2.27,-0.17,10.53,37.06
4.83,-2.05,8.17,37.02
4.14,-1.65,7.97,37.07
0.3,-0.35,8.88,37.06
1.18,1.22,9.87,37.04
2.19,-0.01,10.81,37.07
-1.93,1.28,8.14,37.04
-1.04,1.31,10.32,37.04
3.33,-1.5,10.82,37.04
4.17,-1.62,7.4,37.08
3.47,-0.85,6.86,37.05
-0.51,0.32,9.2,37.09
0.77,1.26,9.36,37.07
3.73,-1.37,10.26,37.07
5.36,-1.84,7.45,37.04
2.83,-0.64,7.3,37.08
-0.56,0.41,9.43,37.08
0.88,0.64,10.58,37.05
3.41,-0.38,10.64,37.09
6.27,-1.81,7.5,37.07
1.58,-0.64,8.36,37.1
-0.12,0.16,9.54,37.04
1.03,0.8,10.75,37.06
4.32,-0.55,9.73,37.08
6.34,-1.76,7.57,37.07
0.82,-0.44,8.41,37.0
-0.4,0.33,10.12,37.07
0.31,0.58,10.86,37.08
2.87,-0.65,9.71,37.07
4.74,-2.47,8.9,37.06
0.38,-0.0,7.64,37.1
-1.88,0.42,10.29,37.07
0.5,0.45,10.79,37.04
2.88,0.01,9.06,37.08
5.09,-2.27,8.35,37.07
-0.25,-0.39,7.75,37.1
-2.55,1.06,10.06,37.06
-0.24,-0.11,11.51,37.08
1.49,-0.54,8.99,37.07
4.48,-1.85,7.81,37.08
-1.1,-0.91,7.93,37.1
-3.22,2.34,9.39,37.04
-0.44,-0.87,11.93,37.04
2.48,-0.64,8.61,37.03
4.3,-1.66,7.16,37.0
0.17,-0.13,7.75,37.03
-3.39,1.79,9.79,37.08
0.36,-0.12,11.22,37.06
3.57,-1.48,9.39,37.07
4.33,-1.54,6.75,37.05
0.48,0.2,7.52,37.06
-1.26,1.44,9.48,37.08
0.69,0.16,11.43,37.07
4.71,-2.4,9.11,37.02
4.97,-1.86,6.85,37.03
0.34,-0.18,8.2,37.03
-1.27,1.23,9.22,37.07
0.78,0.43,11.52,37.07
5.11,-1.84,8.63,37.08
4.27,-1.18,7.13,37.05
0.56,-0.56,8.42,37.07
-0.51,1.42,9.29,37.06
1.86,0.74,10.7,37.06
5.69,-1.64,9.16,37.02
1.17,-0.6,8.81,37.06
0.07,-0.48,8.73,37.06
-0.13,1.02,9.85,37.08
2.08,0.45,11.0,37.04
5.09,-1.62,9.53,37.06
6.71,-2.42,7.9,37.02
1.74,-0.57,7.43,37.07
-0.39,0.01,9.9,37.07
1.03,0.74,10.78,37.03
3.92,-0.02,9.74,37.04
6.91,-2.01,8.18,37.04
1.0,-0.77,8.17,37.03
-1.14,0.17,10.01,37.04
0.29,0.12,10.79,37.04
2.67,-0.22,10.12,37.05
4.81,-2.08,8.6,37.07
1.21,-0.45,7.67,37.07
-2.43,0.61,10.58,37.0
-0.1,-0.36,11.34,37.05
1.81,-0.0,9.8,37.02
4.83,-2.13,8.3,37.07
-0.13,-0.64,8.03,37.05
-3.79,1.36,9.91,37.06
-0.44,0.46,11.54,37.04
1.4,-1.03,9.51,37.04
3.51,-1.0,7.4,37.07
0.3,-1.2,8.09,37.05
-4.08,1.18,9.59,37.04
-1.39,0.24,11.19,37.06
2.15,-1.51,9.86,37.08
3.14,-1.82,7.63,37.02
0.64,-0.46,7.24,37.07
-3.38,0.83,9.83,37.05
-0.59,0.65,11.14,37.04
2.76,-1.63,8.99,37.01
3.69,-1.14,6.85,37.02
0.74,0.12,7.18,37.03
-1.44,1.47,9.56,37.05
0.85,0.22,11.44,37.04
3.85,-1.47,8.99,36.99
4.92,-1.36,6.96,37.04
1.23,-0.98,8.21,37.05
0.05,1.12,9.56,37.04
2.2,0.45,11.16,37.04
4.81,-2.34,10.11,37.01
5.45,-1.06,7.24,37.06
2.56,-1.08,8.4,37.01
-0.16,1.28,9.71,37.04
2.73,0.66,9.91,37.06
5.53,-1.78,10.21,37.03
5.5,-1.53,7.03,37.04
0.37,-0.62,8.69,37.04
-0.79,0.57,9.54,37.07
2.11,0.47,11.07,37.05
4.49,-1.99,10.38,37.04
5.77,-1.71,7.4,37.03
0.47,-0.48,9.17,37.05
-0.76,0.8,10.04,37.08
0.56,0.81,10.75,37.05
-0.26,0.34,10.68,37.03
4.8,-1.24,9.97,37.03
5.75,-1.95,8.0,37.01
3.12,-0.57,6.94,37.05
-1.21,1.02,9.32,37.06
1.09,0.99,9.9,37.05
4.37,-1.41,10.01,37.06
4.92,-1.81,7.55,37.07
2.5,-0.35,7.48,37.02
-0.21,0.03,10.03,37.05
1.71,0.82,9.73,37.08
3.94,-0.54,10.36,37.05
6.23,-1.98,7.54,37.06
0.19,-0.48,8.69,37.03
-0.72,0.93,9.84,37.04
0.84,0.92,11.03,37.02
4.05,-1.04,10.33,37.01
5.65,-1.83,7.37,37.03
-0.29,-0.4,8.94,37.05
-0.86,0.49,10.52,37.02
1.09,0.47,11.1,37.05
4.35,-1.91,10.49,37.0
4.33,-1.77,7.85,37.04
0.32,-0.06,8.14,37.05
-1.81,-0.08,11.31,37.0
1.57,0.54,11.0,37.05
3.71,-1.45,9.81,37.04
4.49,-1.48,7.4,37.08
-1.22,-0.25,7.87,37.04
-2.41,0.4,10.78,37.04
0.26,0.15,10.7,37.07
1.87,-0.62,8.99,37.08
3.94,-1.37,7.2,37.06
1.53,-1.91,8.17,37.04
-2.25,0.78,9.17,37.07
-1.78,-0.01,11.15,37.02
0.99,-0.53,9.96,37.06
4.52,-0.96,8.29,37.09
3.84,-2.33,7.73,37.08
-3.43,1.17,8.84,37.04
-1.24,0.58,10.99,37.07
1.78,-0.26,10.03,37.02
3.53,-0.95,7.65,37.0
2.93,-0.93,7.02,37.07
-3.49,0.44,9.03,37.04
-1.18,1.19,9.75,37.05
2.67,-0.57,10.18,37.02
3.56,-1.62,7.96,37.02
2.68,-0.18,6.51,37.06
-0.5,0.45,8.77,37.1
-0.49,1.19,10.09,37.04
3.02,-0.01,9.96,37.04
5.45,-1.21,8.22,37.04
3.04,-1.64,7.67,37.03
-0.96,0.42,8.22,37.04
0.29,1.18,9.6,37.07
3.65,-1.45,10.19,37.03
4.91,-1.02,7.71,37.08
2.6,-1.48,7.59,37.05
-0.6,0.7,8.82,37.02
0.48,1.17,9.75,37.02
4.17,-1.64,10.92,37.06
4.5,-1.69,7.75,37.08
1.67,-1.29,8.31,37.05
-0.15,0.42,9.57,37.06
0.64,0.77,10.65,37.04
3.67,-1.04,10.42,37.0
5.88,-1.57,7.86,37.03
1.97,-1.15,8.69,36.99
-0.87,0.18,10.03,37.02
0.22,0.86,10.13,37.02
3.71,-0.59,10.27,37.04
5.17,-2.13,8.29,37.04
-0.36,-0.62,9.05,37.05
-0.64,0.64,10.34,37.06
0.1,0.42,10.34,37.04
2.11,0.0,9.73,37.05
4.39,-2.18,8.35,37.01
0.63,-0.44,7.81,37.02
-1.36,0.14,10.34,37.02
0.13,0.58,9.99,37.01
2.46,-0.96,9.92,37.03
5.65,-1.27,7.43,37.01
0.01,-0.07,7.86,37.03
-2.93,-0.39,11.05,37.05
1.02,0.07,10.94,37.08
3.12,-0.24,9.34,37.07
5.2,-1.81,7.89,36.98
-0.13,-0.33,7.54,37.02
-2.86,0.75,10.38,37.02
0.67,0.19,10.69,36.98
2.49,-0.15,8.53,37.02
4.87,-1.67,6.91,37.07
0.36,-0.27,7.27,37.08
-2.41,1.63,9.14,37.02
0.54,-0.08,11.27,37.04
3.73,-0.66,8.93,37.04
4.95,-2.06,7.26,37.0
-1.1,0.28,7.76,37.02
0.53,0.19,9.09,37.06
-0.61,0.44,10.45,36.99
2.96,0.46,10.18,37.02
5.94,-2.91,9.65,37.0
1.8,-0.95,6.62,37.03
-1.26,-0.34,10.43,37.02
-0.5,1.3,10.12,37.02
1.21,0.24,10.8,37.01
4.05,-1.73,8.66,36.99
2.62,-1.57,8.32,37.01
-2.16,1.0,9.37,37.0
0.56,0.58,9.99,37.04
2.79,-0.71,10.99,37.05
5.5,-1.18,8.38,37.04
2.95,-0.41,7.62,37.07
-2.35,0.47,10.13,36.99
-0.71,0.14,11.49,37.02
0.81,0.89,10.96,37.03
5.54,-2.16,7.78,37.01
0.63,-0.79,6.86,37.07
-2.37,0.74,7.95,37.04
-2.83,0.23,10.68,37.02
-0.95,-0.16,11.69,37.04
2.23,-0.52,9.3,37.03
5.22,-2.56,8.14,37.0
-2.04,-0.53,9.44,37.03
-3.27,0.9,10.89,37.0
0.88,-0.55,11.88,37.04
2.38,-1.09,9.53,36.99
4.71,-2.02,7.56,37.03
-1.25,-0.06,8.48,37.06
-1.93,0.8,10.57,36.99
1.02,-0.37,11.17,36.99
2.75,-1.47,8.99,36.97
4.57,-1.12,7.03,37.03
-1.21,0.0,8.15,36.99
-1.8,1.08,10.95,37.01
1.68,-0.57,10.99,37.01
-1.38,-0.81,8.75,36.97
-3.06,1.15,9.28,37.0
-1.27,0.07,11.61,37.02
1.01,-0.05,11.09,37.03
3.59,-2.08,8.95,37.01
1.22,-1.21,7.07,37.0
-3.32,0.76,8.99,37.04
-2.13,0.2,11.55,37.01
1.74,0.22,10.48,37.01
5.1,-1.86,8.27,37.02
2.66,-0.68,6.62,37.02
-2.75,0.58,9.37,36.99
-1.64,0.76,11.09,37.02
2.49,0.4,9.37,37.05
4.39,-2.23,8.38,37.02
1.58,-0.34,6.42,36.99
-3.63,0.63,9.17,37.02
-1.72,0.92,11.78,37.04
3.27,-0.94,9.66,36.99
4.59,-1.16,8.18,37.03
-0.55,0.44,8.25,36.97
-1.85,0.96,9.03,37.03
-1.29,-0.37,11.93,36.99
1.2,0.73,9.62,37.01
5.0,-1.83,8.06,37.01
2.72,-1.63,7.75,37.02
-1.44,2.45,7.61,36.97
0.05,0.85,11.43,37.03
2.77,-0.87,10.47,36.99
4.99,-0.72,6.66,37.01
2.4,-0.91,6.6,37.02
-0.55,1.2,8.85,36.96
-0.34,0.78,10.56,37.0
4.35,-1.28,10.04,37.01
6.26,-1.35,7.62,36.98
2.1,-0.89,7.42,37.0
-1.1,0.95,9.85,37.0
1.96,0.21,10.96,36.99
4.01,-1.3,9.29,36.99
4.39,-0.95,7.19,37.0
3.25,-1.24,8.29,37.0
0.2,0.84,9.45,36.99
2.07,0.62,9.57,36.98
5.29,-0.92,10.35,36.99
4.87,-2.01,8.11,36.98
2.64,-0.67,7.86,36.97
-0.2,-0.37,10.17,36.99
1.86,0.79,9.92,37.0
3.99,-1.16,10.27,36.99
4.66,-1.57,7.84,36.99
1.64,-0.14,8.12,36.99
-0.34,-0.39,10.68,37.01
0.85,0.96,10.05,37.03
4.29,-1.06,10.52,36.99
5.94,-3.06,8.52,37.02
0.3,-0.06,7.87,37.04
0.16,0.32,9.78,36.97
0.48,1.6,10.36,37.01
3.79,-0.62,9.28,36.99
5.26,-2.82,8.2,36.97
-0.75,-0.29,8.04,36.99
-1.35,0.71,10.17,36.98
0.08,0.28,11.36,37.02
3.99,-1.53,10.02,37.0
5.58,-2.08,7.38,37.02
4.3,-0.67,6.82,37.01
-1.59,0.21,11.66,36.99
1.06,0.63,10.99,36.97
2.17,-0.4,10.81,37.0
5.15,-1.53,8.17,37.0
2.5,-0.94,7.24,36.96
-3.28,0.39,9.98,36.97
0.42,-0.05,9.93,36.98
0.42,1.24,9.61,37.02
4.46,-1.18,8.54,37.02
2.58,-1.81,8.16,37.03
-3.28,0.38,9.25,36.96
-0.85,0.21,11.1,37.0
0.77,0.11,10.94,36.99
3.52,-1.41,6.75,36.96
1.88,-0.66,7.99,36.99
-0.21,0.23,9.85,36.98
0.61,1.07,10.13,37.02
3.73,-0.97,10.64,37.0
5.53,-2.27,8.89,37.01
1.3,-0.49,7.91,37.01
-1.14,0.28,10.25,37.0
0.82,0.0,10.61,37.01
3.53,-0.27,10.32,37.03
4.5,-1.36,7.4,36.98
1.4,0.88,7.68,37.01
-2.21,0.11,11.08,36.99
0.11,1.16,9.83,36.94
3.4,-0.48,8.96,37.01
5.45,-1.54,7.75,36.96
0.29,0.29,7.38,37.02
-3.56,0.13,11.41,36.99
1.25,-0.03,10.91,37.0
3.62,-0.62,9.31,36.96
4.38,-2.27,7.38,36.98
-0.75,0.13,7.56,37.0
-2.11,0.11,10.56,37.03
0.12,1.06,10.02,37.02
3.16,-1.02,9.02,36.99
4.17,-1.14,7.65,36.99
-0.22,-0.51,8.03,36.96
-2.38,0.14,10.75,37.0
0.26,0.38,10.28,36.98
4.32,-0.37,8.26,36.97
4.07,-0.71,6.9,37.0
-0.45,-0.93,8.03,36.96
-2.2,0.42,9.58,36.99
0.04,0.14,10.3,36.96
3.11,0.03,8.9,36.96
3.51,-1.95,7.78,36.97
0.88,-0.68,7.59,37.02
-1.3,0.64,9.42,37.01
1.03,0.03,11.15,37.02
2.68,0.3,10.13,36.96
3.78,-0.88,10.08,36.96
4.92,-0.94,7.07,36.98
0.38,-0.38,8.12,36.97
-1.22,0.54,9.53,37.0
1.47,0.91,10.64,36.99
5.15,-0.57,10.12,36.96
5.63,-2.51,7.94,36.99
-0.28,-0.06,8.01,36.96
-1.15,0.7,10.55,36.95
0.23,0.32,11.94,36.98
3.59,-1.21,9.82,37.01
5.9,-3.82,8.24,37.01
0.06,0.11,7.52,36.97
-2.82,0.58,10.75,36.97
0.36,0.51,11.44,36.93
4.55,-1.72,9.76,36.97
4.21,-2.02,7.67,36.97
-0.42,-0.02,8.14,36.97
-0.59,0.45,10.03,36.94
0.68,0.92,10.29,36.95
4.95,-1.27,9.52,36.97
5.1,-2.0,8.05,36.98
-1.62,-0.1,7.29,36.99
-1.87,0.79,10.72,36.96
1.16,-0.36,10.16,37.01
2.08,0.11,8.44,37.0
2.94,-1.3,7.14,36.97
-1.11,0.0,8.53,36.97
-2.5,-0.04,10.13,36.97
-0.59,-0.25,10.68,37.0
1.41,0.7,9.92,36.98
3.96,-1.24,8.52,36.97
2.2,-1.13,7.38,36.97
-4.07,0.04,9.49,36.95
-2.66,-0.07,11.62,37.02
1.55,-1.14,11.03,36.96
4.05,-2.26,8.02,36.96
1.32,-0.78,7.5,36.96
-3.85,0.56,10.46,37.02
-2.53,0.1,11.69,36.95
1.96,-0.92,9.84,37.0
3.58,-2.22,8.46,37.01
1.64,-0.88,7.02,36.97
-2.8,0.81,9.27,36.95
0.24,-0.01,11.4,36.96
2.8,-0.2,9.59,37.0
3.79,-1.94,8.1,37.01
2.21,-0.88,7.12,36.98
-1.86,1.02,8.25,37.0
-0.13,0.7,10.42,36.93
3.42,-0.72,10.29,36.97
5.62,-1.81,7.6,36.98
2.17,-1.84,7.05,37.01
-1.68,1.18,8.23,36.99
0.34,1.12,10.56,36.95
3.22,-1.29,9.7,36.94
4.86,-1.45,7.13,36.98
2.87,-0.91,7.7,36.97
-0.68,1.26,8.69,37.01
0.72,0.93,11.27,36.94
4.93,-2.5,10.35,36.93
5.3,-1.4,6.86,36.98
2.94,-1.8,8.55,36.94
-0.38,1.7,8.53,36.96
1.15,0.7,10.28,36.97
4.8,-1.83,10.29,36.98
5.65,-1.53,7.06,36.95
3.06,-0.77,7.65,36.98
-0.5,1.14,8.84,36.97
2.47,1.37,9.39,36.94
4.83,-1.93,9.22,36.97
4.65,-1.54,7.35,36.98
2.05,-0.88,8.51,36.97
-0.37,0.52,9.31,36.95
1.24,1.13,9.85,36.96
3.99,-0.72,9.45,36.98
4.66,-1.76,8.29,36.99
0.28,-0.53,7.98,36.97
-2.32,1.55,7.78,36.94
-0.63,0.58,11.13,36.94
2.82,-0.39,9.75,36.94
5.36,-1.43,7.49,36.94
2.67,-1.04,7.35,36.98
-0.48,1.21,7.74,36.95
-0.16,0.91,10.77,36.97
4.24,-0.58,9.05,36.99
6.55,-1.7,8.03,36.98
2.02,-0.62,7.0,36.97
-0.32,1.51,8.12,36.98
-0.04,1.04,10.84,36.99
4.19,-1.13,10.07,36.96
5.38,-1.9,7.88,37.02
2.16,-0.74,7.64,36.94
0.36,0.89,9.49,36.94
0.07,0.53,10.85,36.94
3.46,-0.59,9.19,36.96
4.15,-1.28,8.24,36.94
2.36,-1.27,7.92,36.94
-0.85,0.6,9.47,36.93
1.73,1.64,9.94,36.98
4.06,-0.37,10.13,36.96
4.59,-1.46,7.67,36.97
2.49,-0.82,7.31,36.97
-0.97,0.94,9.74,36.94
1.47,1.53,10.08,36.97
4.41,-0.82,10.19,36.94
6.21,-1.54,7.59,37.0
2.06,-0.4,8.15,36.92
-1.14,0.63,9.45,36.96
1.75,0.74,10.74,36.94
3.51,-0.03,9.74,36.94
5.52,-1.42,7.4,36.96
0.03,-0.12,8.02,36.96
-1.7,0.2,9.78,36.97
0.23,0.92,10.54,36.95
2.53,0.16,10.94,36.98
4.62,-2.33,8.53,36.96
-0.87,-0.54,8.95,36.98
-0.06,-0.74,10.08,36.96
0.44,0.02,11.06,36.94
2.81,-0.2,10.58,36.96
6.39,-1.99,9.64,36.98
3.58,-1.62,7.78,36.95
-1.08,-0.23,10.09,36.96
0.03,0.41,11.11,36.95
3.63,1.11,10.35,36.94
5.57,-1.94,9.21,36.96
3.59,-1.26,7.37,36.98
0.72,-0.54,9.93,36.96
1.65,0.19,10.39,36.98
1.54,1.91,9.36,36.97
6.85,-2.75,10.4,36.93
5.51,-2.35,8.46,36.96
-0.15,-0.31,9.08,36.97
0.71,1.27,10.35,36.95
2.47,0.64,10.16,37.0
3.7,-1.79,7.75,36.95
0.58,0.27,7.47,36.96
0.12,-0.18,10.87,36.99
1.79,0.34,10.33,36.97
7.19,-2.16,8.94,36.92
5.37,-2.11,7.45,36.94
0.08,0.09,7.72,36.97
0.79,0.47,9.98,36.98
3.65,-0.08,11.07,36.97
6.81,-1.18,8.69,36.96
4.58,-2.26,8.15,36.95
0.89,-0.09,8.5,36.94
0.25,1.02,10.76,36.96
3.22,-0.22,11.62,36.96
5.16,-1.38,9.12,36.98
3.65,-1.55,7.24,36.97
0.86,-0.01,9.45,36.97
-0.3,0.84,9.94,36.94
2.08,1.19,10.68,36.93
5.02,-2.34,9.49,36.95
4.51,-1.08,6.47,36.98
-0.46,-0.84,9.68,36.92
-0.44,1.01,9.96,36.94
3.16,0.94,10.05,36.94
5.62,-2.03,9.08,36.96
4.14,-0.3,6.37,36.97
-1.85,0.19,9.13,36.94
-0.03,0.61,11.45,37.0
1.69,-0.36,10.04,36.97
4.58,-0.74,8.75,36.94
3.76,-1.99,7.13,36.92
-3.25,1.88,8.69,36.96
-0.03,0.69,11.39,36.92
1.83,0.4,10.53,36.99
5.14,-0.86,8.52,36.93
1.9,-1.36,7.0,36.96
-3.5,1.34,8.79,36.93
-1.67,-0.35,11.45,36.91
0.49,1.43,9.16,36.97
4.38,-1.98,9.0,36.94
-1.62,0.64,10.4,36.93
1.84,0.06,10.15,36.97
5.56,-1.81,8.85,36.96
4.37,-1.31,6.73,36.96
-0.35,0.51,6.82,36.94
-1.08,1.05,9.75,36.94
3.33,-0.04,10.82,36.94
4.88,-2.23,8.67,36.93
4.79,-1.41,6.99,36.94
0.42,0.57,7.0,36.99
-1.93,1.13,10.2,36.97
2.89,-0.14,10.96,36.96
5.86,-2.34,8.53,36.98
5.82,-0.74,6.39,36.94
1.16,0.62,8.07,36.93
-0.78,0.47,10.73,36.95
3.4,-0.15,10.17,36.96
5.32,-2.39,8.27,36.93
4.49,-0.03,6.63,36.94
5.24,0.46,7.18,36.99
3.11,-0.94,7.18,36.94
1.1,-0.02,7.17,36.97
-2.21,1.06,8.46,36.94
3.24,-0.48,10.89,36.95
2.25,-1.14,9.76,36.96
5.72,-0.73,6.64,36.95
2.89,-1.38,7.63,36.92
-2.5,1.1,9.08,36.97
-1.15,1.31,10.56,36.91
1.84,-1.69,9.79,36.94
3.72,-0.7,7.14,36.92
1.85,-1.31,7.64,36.94
-1.8,1.7,7.9,36.94
-1.36,0.7,10.58,36.88
1.65,-1.38,9.69,36.91
3.96,-0.83,7.57,36.95
0.79,-1.33,7.71,36.93
-2.21,0.71,9.7,36.95
-0.44,0.69,10.67,36.96
3.39,-2.97,10.53,36.94
4.7,-0.86,7.77,36.95
1.89,-1.5,8.46,36.92
-1.53,1.11,9.56,36.91
0.87,0.94,10.24,36.92
5.69,-1.98,10.1,36.96
5.52,-1.71,8.03,36.97
3.06,-0.34,7.03,36.91
1.9,0.89,9.77,36.93
2.53,0.57,10.59,36.97
6.11,-2.3,10.2,36.94
6.62,-2.05,7.61,36.95
2.61,-0.58,7.81,36.93
0.08,0.87,9.72,36.93
2.1,1.02,10.08,36.92
5.49,-0.91,9.8,36.91
4.62,-1.68,7.89,36.92
0.87,-0.47,9.01,36.9
0.13,0.72,9.72,36.94
0.84,1.0,10.48,36.9
2.65,-1.19,9.18,36.93
4.04,-1.09,7.77,36.92
0.34,-1.06,9.38,36.96
-1.79,1.13,9.06,36.91
0.8,1.67,9.87,36.92
3.81,-2.31,10.7,36.93
3.66,-1.38,7.85,36.93
1.44,-1.39,9.06,36.93
-0.42,0.38,9.63,36.95
0.92,0.83,10.15,36.95
3.56,-0.94,10.45,36.94
4.92,-1.71,7.96,36.92
-0.88,-1.19,9.17,36.92
-0.62,0.9,9.83,36.95
1.29,0.95,10.82,36.93
4.62,-1.52,10.38,36.91
4.58,-1.55,7.16,36.93
0.02,0.06,8.09,36.95
-0.29,0.95,10.96,36.93
1.0,0.77,10.76,36.94
4.72,-1.39,9.65,36.91
4.64,-1.94,7.64,36.91
-1.3,0.82,8.35,36.92
-1.21,-0.03,11.23,36.91
-0.22,0.49,11.09,36.92
2.96,-0.67,9.08,36.92
3.14,-2.48,8.8,36.94
-2.27,0.6,9.56,36.92
-1.41,0.16,11.15,36.93
1.03,-0.48,11.47,36.97
2.59,-1.37,8.83,36.89
3.39,-0.72,6.97,36.95
-2.56,-0.2,9.38,36.95
-3.71,0.72,10.86,36.93
0.82,-0.19,10.45,36.92
3.57,-1.09,8.74,36.88
3.94,-1.32,6.52,36.93
-2.54,-0.17,8.86,36.91
-3.0,0.7,10.97,36.94
1.23,-0.15,6.88,36.9
-0.44,1.4,9.88,36.95
1.42,-0.33,10.67,36.94
5.0,-2.21,8.56,36.94
5.61,-1.58,6.57,36.92
1.32,-0.61,7.86,36.94
-0.13,1.26,8.98,36.93
2.81,-0.21,11.01,36.9
2.77,-1.06,10.04,36.91
4.92,-1.24,8.44,36.89
4.49,-1.25,7.74,36.94
0.48,1.2,9.49,36.91
-0.63,0.9,10.23,36.92
3.95,-0.72,9.93,36.93
6.06,-1.7,8.26,36.9
3.74,-0.85,7.16,36.9
0.48,0.69,8.99,36.92
0.67,1.23,10.07,36.92
0.05,0.23,10.76,36.66
0.0,0.56,7.15,36.67
-2.71,0.89,9.63,36.69
-0.04,-0.43,10.72,36.69
4.45,-1.14,8.81,36.65
4.56,-1.86,6.65,36.67
-0.22,0.61,7.53,36.66
-2.68,0.2,10.45,36.68
1.47,-0.93,11.94,36.69
3.89,-1.69,9.0,36.66
4.12,-1.57,7.26,36.64
-0.66,0.55,7.47,36.66
-2.34,0.5,10.27,36.67
1.31,-0.26,11.43,36.69
4.01,-0.99,8.26,36.7
3.97,-0.94,6.96,36.65
-0.89,-0.13,8.2,36.63
-2.11,0.92,9.67,36.65
1.95,-0.36,11.35,36.68
4.74,-2.88,9.24,36.62
3.61,-0.96,6.56,36.69
-1.27,0.16,8.15,36.66
-0.09,1.21,10.35,36.66
0.12,1.06,10.59,36.69
4.5,-2.14,8.56,36.7
4.52,-1.52,8.08,36.67
2.78,-0.46,7.14,36.66
-0.02,0.97,9.13,36.65
0.12,-0.04,11.03,36.66
3.31,-0.69,9.37,36.66
5.82,-2.23,8.71,36.67
2.13,-1.02,7.56,36.61
-0.66,1.76,8.46,36.67
1.68,0.89,11.17,36.69
3.84,-1.84,10.12,36.66
4.98,-1.98,7.94,36.63
2.89,-0.6,7.76,36.65
-0.37,1.27,8.94,36.64
-0.42,1.25,10.38,36.65
5.09,-1.43,9.38,36.64
5.53,-2.02,7.69,36.71
-2.17,1.44,8.17,36.68
-3.72,1.52,10.22,36.67
0.78,-1.05,12.24,36.67
3.3,-0.3,8.66,36.67
4.44,-1.36,6.81,36.67
-1.92,0.57,7.09,36.63
-4.7,0.81,9.9,36.67
0.77,-1.27,11.55,36.65
4.54,-0.94,7.94,36.64
4.05,-1.23,6.29,36.66
-0.36,0.75,7.98,36.61
-3.29,0.69,10.29,36.64
2.19,-0.29,10.95,36.64
3.82,-1.53,8.38,36.63
2.9,-0.05,6.32,36.63
0.14,0.02,8.41,36.63
-2.04,1.03,9.07,36.62
1.3,-0.27,10.9,36.67
4.75,-1.32,8.97,36.6
0.13,0.41,10.43,36.64
0.66,-0.9,11.41,36.63
4.24,-0.68,8.29,36.6
5.36,-1.97,7.74,36.63
1.91,0.06,7.18,36.67
-1.4,0.3,10.23,36.62
2.74,0.58,10.9,36.64
5.83,-1.91,8.4,36.64
4.29,-1.59,7.25,36.67
1.14,0.33,7.19,36.63
-1.03,0.83,9.97,36.57
1.82,0.28,10.74,36.62
4.6,-2.0,8.92,36.69
5.63,-0.55,6.9,36.64
0.26,0.02,7.6,36.63
-1.23,1.57,9.73,36.65
2.4,-0.72,11.6,36.67
4.66,-1.83,8.6,36.68
5.29,-0.28,6.29,36.67
0.99,-0.43,8.74,36.64
4.08,-1.76,9.6,36.65
5.33,-1.65,7.03,36.58
0.06,0.39,6.85,36.61
-1.76,1.45,9.89,36.64
1.07,-0.5,12.39,36.65
4.92,-2.26,8.92,36.63
4.66,-0.39,6.02,36.59
0.3,-0.18,8.12,36.63
-2.43,1.33,10.03,36.66
1.11,0.16,10.14,36.6
3.89,-1.57,8.62,36.62
3.55,-0.69,6.37,36.62
0.98,-0.45,8.02,36.6
-1.78,1.4,9.09,36.62
1.07,-0.07,10.63,36.63
4.15,-1.95,8.59,36.62
4.04,-1.16,7.19,36.61
-0.65,-0.32,8.45,36.62
-0.37,1.11,9.27,36.62
1.75,0.54,10.82,36.62
4.26,-2.18,9.31,36.65
5.87,-1.27,8.1,36.62
0.37,-0.51,8.5,36.6
-0.23,1.07,8.64,36.64
0.69,0.48,10.53,36.64
4.64,-0.84,10.04,36.65
5.23,-1.39,7.63,36.66
5.02,-0.58,6.3,36.59
0.28,0.71,8.76,36.64
-0.58,1.7,9.8,36.64
4.11,-0.61,10.3,36.59
5.91,-1.58,7.83,36.63
3.8,-0.72,6.22,36.65
-1.02,1.43,8.74,36.65
0.25,0.87,10.51,36.6
4.57,-0.84,10.11,36.62
5.7,-2.21,8.19,36.63
4.06,-0.34,6.99,36.58
-0.34,0.94,9.53,36.63
4.35,-0.58,10.19,36.61
5.63,-2.18,8.5,36.62
3.24,-0.04,6.55,36.61
0.4,-0.76,8.43,36.62
0.36,1.6,9.39,36.58
2.26,0.79,10.7,36.65
5.88,-1.78,8.78,36.6
5.81,-1.86,7.63,36.62
1.16,-0.2,8.3,36.64
1.02,1.4,9.8,36.6
2.17,-0.09,11.35,36.59
5.54,-1.7,8.47,36.64
4.52,-1.37,8.01,36.61
1.02,-0.47,8.26,36.62
-0.34,1.99,9.32,36.65
2.07,-0.51,10.87,36.61
4.67,-2.17,8.92,36.62
3.0,-1.36,7.75,36.62
0.49,-0.64,9.75,36.59
-0.62,0.66,10.49,36.61
3.95,-1.15,7.36,36.59
0.76,-1.55,8.05,36.64
-3.9,0.86,9.38,36.62
-1.24,0.51,11.48,36.6
1.37,-0.34,10.71,36.63
4.26,-1.0,8.58,36.65
1.1,-1.92,8.12,36.59
-3.03,0.66,9.91,36.62
-0.44,0.52,11.56,36.59
2.05,-0.25,10.58,36.59
4.44,-0.85,8.37,36.64
2.08,-2.19,8.54,36.61
-2.44,1.11,9.8,36.63
-0.9,0.31,11.17,36.61
1.6,-0.13,10.51,36.63
5.3,-1.79,8.14,36.6
1.24,-0.84,7.56,36.6
-2.71,1.58,8.32,36.6
-1.02,0.45,11.37,36.63
3.22,-1.27,10.69,36.58
5.66,-1.71,7.29,36.57
2.54,-0.54,6.78,36.63
-2.39,0.88,9.68,36.58
0.05,0.13,11.74,36.58
2.7,-1.25,9.73,36.64
4.56,-1.57,7.46,36.62
1.99,-0.47,6.42,36.55
-3.57,1.05,9.06,36.6
-0.21,0.22,11.47,36.62
2.82,-0.96,9.82,36.62
3.46,-0.99,7.02,36.67
1.4,-0.21,6.92,36.59
-3.22,1.27,9.11,36.6
-0.62,0.91,10.51,36.57
2.64,-1.75,9.83,36.58
4.57,-0.84,6.85,36.61
1.63,-1.09,8.04,36.59
-1.85,1.44,8.78,36.65
-0.21,0.42,10.87,36.62
1.58,-0.39,7.68,36.64
0.3,0.61,8.32,36.59
0.36,0.78,9.38,36.59
3.43,0.2,10.48,36.57
5.85,-2.57,8.77,36.59
3.66,-0.48,7.23,36.56
0.2,-0.16,8.67,36.59
0.27,1.31,9.97,36.57
-0.11,0.77,10.73,36.59
5.76,-2.92,8.96,36.59
4.98,-1.37,7.44,36.61
2.19,-0.64,7.52,36.61
0.02,0.25,11.1,36.57
2.1,0.11,9.89,36.63
5.08,-1.75,10.47,36.54
4.18,-1.42,7.81,36.62
1.78,-0.71,7.91,36.57
-0.03,0.47,10.01,36.64
1.18,0.62,10.21,36.61
4.99,-1.39,10.78,36.56
4.32,-1.22,7.9,36.61
4.52,-2.31,7.95,36.62
0.7,-0.25,7.08,36.57
-2.94,0.47,9.97,36.59
0.68,0.28,11.43,36.59
3.78,-2.57,9.21,36.61
3.69,-1.2,7.3,36.58
1.6,0.16,7.24,36.58
-2.37,1.33,10.06,36.59
0.25,0.55,10.66,36.6
3.56,-2.32,9.66,36.6
4.68,-1.08,7.09,36.6
1.25,0.04,7.52,36.57
-1.09,0.91,9.65,36.62
0.92,0.63,10.95,36.59
4.45,-2.35,9.92,36.57
3.7,-0.46,7.0,36.58
1.31,-0.41,8.07,36.62
-0.34,0.79,10.02,36.61
1.32,0.86,10.41,36.63
4.75,-2.58,10.3,36.58
3.84,-1.05,7.47,36.58
1.16,-0.27,7.84,36.62
-0.85,0.81,9.89,36.61
1.28,0.67,10.51,36.59
5.56,-2.27,9.67,36.59
3.36,-1.62,7.46,36.54
0.39,-0.07,7.94,36.58
-0.61,1.03,10.22,36.54
1.78,0.16,10.52,36.54
4.82,-1.71,9.33,36.56
4.47,-2.44,8.14,36.58
0.23,-0.62,8.51,36.6
-0.6,0.94,9.87,36.59
1.53,0.11,10.87,36.59
4.57,-1.46,9.96,36.63
5.83,-2.33,7.95,36.58
-1.17,0.15,8.48,36.63
-0.02,0.28,10.63,36.56
3.86,-0.99,6.72,36.59
-0.23,-0.17,8.06,36.57
-0.55,1.85,9.52,36.59
1.87,-0.53,11.94,36.57
4.96,-2.05,8.53,36.54
4.29,-1.22,7.29,36.58
1.02,0.02,11.69,36.62
4.64,-2.54,9.55,36.59
4.96,-1.01,7.19,36.55
0.42,-0.42,8.34,36.58
-0.44,1.35,9.49,36.58
-0.71,1.27,9.94,36.55
2.98,-0.55,10.26,36.57
4.7,-2.04,8.25,36.53
3.11,-0.74,7.64,36.56
0.06,0.96,8.97,36.57
0.45,1.04,9.95,36.58
3.57,-0.38,9.98,36.57
5.56,-1.88,8.21,36.6
3.38,-1.0,7.65,36.59
-0.94,0.34,8.61,36.56
0.09,1.13,9.88,36.54
3.6,-1.28,11.17,36.56
6.17,-2.24,8.26,36.54
2.48,-1.07,7.6,36.56
-0.71,0.63,9.57,36.57
2.41,-2.11,7.58,36.55
1.3,-0.28,7.46,36.53
-2.62,0.33,10.31,36.55
-0.14,0.61,10.68,36.57
2.65,-1.01,9.56,36.51
4.2,-1.5,7.76,36.57
0.61,-1.03,8.11,36.58
-2.92,1.15,9.82,36.54
0.29,0.61,10.52,36.55
2.18,-0.47,9.85,36.52
3.71,-2.26,8.03,36.58
0.08,-0.1,7.63,36.54
-2.37,0.75,10.25,36.55
-1.11,-0.5,11.29,36.56
2.38,-0.26,8.9,36.56
4.59,-2.54,8.64,36.56
0.71,0.1,6.89,36.56
-3.2,1.24,10.0,36.58
-0.53,-0.63,11.74,36.57
2.71,-0.54,8.71,36.57
5.03,-1.39,7.48,36.59
1.37,-0.28,7.46,36.52
-3.08,1.55,9.31,36.54
1.09,0.8,11.36,36.56
3.85,-1.59,9.03,36.54
4.88,-0.98,7.0,36.54
1.42,-0.15,7.61,36.53
-1.31,1.11,8.99,36.54
0.31,0.61,10.74,36.57
3.94,-1.88,9.2,36.59
5.88,-1.53,7.73,36.53
1.64,-0.53,7.98,36.57
-0.45,1.1,8.63,36.51
1.16,0.82,10.66,36.55
5.07,-2.07,9.49,36.55
5.43,-0.6,6.94,36.52
0.76,-0.49,7.82,36.53
0.07,1.39,9.78,36.56
0.93,0.34,11.18,36.55
5.3,-1.82,9.18,36.5
4.79,-1.81,7.82,36.56
0.48,-0.48,8.28,36.57
-0.58,1.45,9.8,36.53
2.04,0.25,10.64,36.52
5.11,-2.03,9.63,36.57
4.69,-1.62,7.75,36.54
1.04,-0.27,8.68,36.58
-0.83,0.16,9.98,36.49
1.99,0.45,10.47,36.51
4.49,-1.7,9.97,36.54
4.89,-1.42,7.75,36.55
5.37,-1.09,10.64,36.48
6.01,-2.13,9.63,36.51
4.58,-1.26,7.24,36.53
0.9,-0.08,8.91,36.45
-0.06,0.6,10.16,36.49
2.0,0.52,10.41,36.48
5.65,-2.21,9.0,36.42
3.28,-1.1,7.75,36.47
-1.9,0.68,8.79,36.51
-0.44,0.94,10.11,36.5
1.19,0.11,10.96,36.45
5.07,-1.64,8.94,36.48
4.07,-1.6,7.67,36.47
-1.22,-0.15,9.21,36.47
-1.8,0.8,10.74,36.47
1.59,-0.19,9.91,36.49
4.19,-1.38,9.04,36.52
2.56,-2.44,8.03,36.44
-3.1,1.53,8.39,36.48
-1.47,-0.28,11.32,36.48
-0.47,0.81,10.17,36.51
3.2,-1.42,8.33,36.49
2.56,-1.25,7.13,36.46
-4.09,0.99,7.87,36.44
-3.66,0.2,11.37,36.44
1.14,-0.45,10.57,36.5
3.54,-1.77,8.42,36.46
3.11,-1.14,6.56,36.45
-2.34,0.06,8.93,36.42
-0.68,0.34,10.93,36.46
1.94,-0.74,10.53,36.51
4.29,-1.21,7.45,36.47
4.18,-0.85,6.82,36.44
-2.1,0.59,8.32,36.46
-1.34,1.42,10.2,36.52
1.66,-1.81,10.98,36.5
4.03,-0.49,7.64,36.5
4.04,-1.73,7.27,36.49
-0.7,1.1,8.3,36.47
-0.6,1.41,10.21,36.46
-2.38,0.02,9.71,36.49
-0.6,0.62,11.84,36.48
1.95,-0.46,10.47,36.49
5.09,-2.63,8.62,36.43
1.04,-2.32,7.91,36.42
-2.83,2.06,8.43,36.5
-0.7,0.02,11.17,36.48
0.52,-0.14,9.82,36.43
4.29,-0.93,7.82,36.48
0.82,-1.34,8.18,36.49
-4.08,1.52,9.58,36.47
-1.14,0.3,11.28,36.47
2.23,-1.01,10.72,36.45
3.76,-1.41,7.15,36.42
1.49,-0.89,7.02,36.42
-3.99,1.02,9.08,36.49
-2.26,1.04,11.2,36.47
2.07,-0.99,11.09,36.47
3.56,-2.7,8.36,36.44
5.23,-0.98,9.31,36.48
4.52,-1.64,6.99,36.44
0.79,-0.45,8.39,36.5
-1.28,0.91,9.86,36.47
2.26,0.5,10.38,36.49
4.79,-1.88,10.13,36.45
4.75,-1.46,7.73,36.43
1.14,-0.17,8.24,36.51
-0.27,0.12,10.33,36.45
1.64,1.14,9.62,36.47
5.34,-2.29,10.34,36.46
4.65,-2.09,8.12,36.44
-0.6,-0.24,8.48,36.46
-0.44,-0.85,11.8,36.47
0.81,1.06,10.75,36.44
5.65,-1.56,9.59,36.49
5.98,-2.34,8.57,36.43
-1.08,-0.1,8.5,36.45
0.27,0.77,9.67,36.51
0.67,0.69,10.41,36.51
3.64,-0.6,8.76,36.44
5.46,-1.79,7.82,36.48
1.96,-1.58,7.83,36.44
-3.39,1.12,9.19,36.47
-0.47,0.21,10.75,36.4
1.19,0.37,9.82,36.48
5.11,-2.05,8.69,36.45
2.27,-1.52,8.12,36.47
-2.24,0.68,8.86,36.47
-0.89,0.27,11.01,36.49
1.47,0.03,9.48,36.45
4.95,-1.74,8.8,36.47
1.34,-1.07,6.9,36.45
-3.58,1.06,8.9,36.46
-1.46,0.36,11.16,36.43
3.03,-0.35,9.57,36.42
4.52,-1.84,8.32,36.45
1.82,-0.68,7.27,36.46
-2.32,0.87,10.26,36.46
-0.59,-0.24,11.46,36.46
2.27,0.06,8.81,36.49
3.8,-1.63,7.99,36.44
0.78,-0.21,6.88,36.43
-2.34,1.5,8.3,36.44
-0.99,-0.14,11.2,36.44
2.42,-0.31,8.98,36.44
5.43,-1.69,7.7,36.48
1.51,-0.91,7.33,36.45
-1.22,1.99,7.93,36.46
-0.37,-0.16,11.77,36.42
2.89,-1.8,10.01,36.51
5.35,-1.61,7.85,36.42
1.49,-1.11,7.66,36.44
-0.89,1.77,8.58,36.49
0.23,0.52,11.4,36.46
3.68,-1.95,10.09,36.47
4.83,-1.86,7.71,36.46
1.66,-0.43,7.44,36.45
-1.46,1.05,9.05,36.46
0.71,0.75,10.76,36.48
4.35,-1.82,10.03,36.46
4.69,-1.73,7.25,36.44
1.29,-0.65,8.13,36.41
-0.34,1.05,9.47,36.45
0.81,0.61,10.66,36.44
1.33,-0.23,10.8,36.44
1.82,-1.59,10.76,36.43
3.9,-1.21,7.37,36.46
2.92,-1.72,7.85,36.46
-1.09,1.26,8.36,36.41
-1.7,1.24,10.83,36.44
2.3,-1.11,10.38,36.39
4.87,-1.19,7.59,36.46
2.82,-0.93,7.28,36.43
-1.11,0.94,8.38,36.45
-0.47,0.49,10.13,36.43
3.39,-1.11,10.29,36.46
5.0,-1.66,7.64,36.42
3.51,-0.47,7.21,36.44
0.26,-0.03,8.95,36.45
0.91,1.57,9.56,36.45
4.28,-1.0,10.27,36.42
5.48,-2.24,7.61,36.41
2.46,-0.67,7.53,36.41
0.87,-0.64,10.56,36.44
4.57,-1.18,8.24,36.45
3.77,-1.85,7.55,36.42
-0.46,1.1,7.31,36.44
-1.37,0.51,10.65,36.41
2.29,-0.82,10.99,36.43
5.5,-1.26,8.14,36.44
4.54,-1.66,7.6,36.38
2.58,-0.26,6.42,36.38
-0.42,1.04,9.01,36.41
0.43,0.71,10.83,36.43
4.13,-1.48,9.73,36.42
5.66,-1.74,7.41,36.44
2.09,-0.44,6.98,36.44
-0.71,0.29,9.73,36.43
-0.22,0.91,10.79,36.41
4.08,-1.87,9.71,36.41
4.13,-1.8,7.65,36.44
1.23,-0.02,7.41,36.4
-0.27,1.02,9.59,36.41
1.07,1.01,10.16,36.47
4.09,-1.3,9.56,36.42
5.79,-1.79,7.5,36.41
2.44,-0.66,7.9,36.42
-0.35,1.29,8.22,36.39
1.16,0.38,11.0,36.4
4.71,-0.87,9.58,36.41
5.48,-1.56,7.13,36.41
1.62,-0.96,8.43,36.41
-1.27,0.56,10.26,36.41
1.19,0.34,11.02,36.42
4.3,-1.41,10.7,36.44
6.81,-2.01,7.86,36.39
1.2,-0.66,8.4,36.43
-0.36,0.49,10.34,36.45
1.18,0.8,10.88,36.43
3.87,-0.41,9.65,36.38
5.19,-2.11,7.49,36.44
-1.14,0.24,8.19,36.44
-2.17,0.87,10.47,36.39
-0.26,0.41,10.86,36.42
3.2,-0.86,9.83,36.44
3.78,-2.12,7.62,36.44
-0.79,0.3,8.42,36.47
-1.95,-0.06,10.78,36.42
-0.3,0.21,10.17,36.43
3.38,-0.69,9.24,36.4
4.17,-2.64,7.88,36.41
-1.2,0.22,8.1,36.42
-1.75,-0.05,10.5,36.41
-0.18,-0.24,11.18,36.41
2.24,-0.87,9.55,36.41
4.94,-2.26,7.57,36.4
-0.44,-0.69,8.49,36.44
-2.23,1.51,9.5,36.42
1.39,-0.22,11.28,36.41
3.29,-0.62,8.47,36.39
4.68,-1.79,7.51,36.41
-2.74,0.29,7.93,36.42
1.47,-0.57,12.0,36.4
3.54,-0.61,7.99,36.41
1.84,-2.13,7.99,36.41
-2.74,0.55,9.3,36.42
-2.6,0.99,11.06,36.45
1.81,-0.38,10.06,36.42
3.05,-1.16,8.55,36.43
2.71,-1.66,7.37,36.44
-2.19,-0.31,9.26,36.4
-2.05,0.21,11.1,36.39
1.59,-0.06,9.86,36.38
3.5,-1.84,9.26,36.38
2.56,-0.79,6.77,36.39
-3.16,0.44,8.71,36.39
-1.91,0.05,11.42,36.41
1.78,-0.41,9.78,36.43
3.36,-1.04,7.75,36.4
3.39,-1.38,7.19,36.38
-2.01,0.08,9.11,36.4
-0.11,0.67,10.77,36.4
3.19,-0.57,10.08,36.44
3.65,-0.93,8.2,36.4
4.04,-1.12,6.93,36.42
-0.28,1.44,8.25,36.39
-0.17,0.57,10.62,36.39
2.23,-0.88,10.02,36.41
5.3,-1.33,8.08,36.42
3.7,-1.39,7.86,36.42
-1.16,1.18,8.46,36.36
0.23,0.72,10.4,36.39
2.78,-1.01,11.48,36.41
5.5,-1.16,7.51,36.41
4.68,-1.76,7.82,36.39
-0.59,0.57,8.7,36.4
-1.07,1.68,8.69,36.39
1.75,-0.1,11.69,36.39
3.45,-1.29,8.64,36.43
5.27,-1.19,7.26,36.37
2.09,-0.73,8.03,36.42
4.51,-2.2,9.54,36.37
4.38,-1.33,7.71,36.39
3.65,-0.93,6.83,36.44
-2.51,0.23,9.44,36.44
-0.95,1.42,10.07,36.4
3.12,-1.41,9.93,36.41
5.67,-1.14,6.75,36.4
2.6,-1.21,6.52,36.4
-1.54,1.45,8.76,36.43
0.51,1.37,10.23,36.4
3.02,-1.35,9.77,36.43
5.1,-1.64,6.92,36.38
1.9,-0.62,6.8,36.41
-1.08,1.19,8.68,36.4
-0.61,0.49,10.83,36.42
2.34,-0.43,9.18,36.4
3.82,-0.8,7.44,36.38
1.12,-1.49,7.88,36.41
-0.92,1.7,8.6,36.42
-0.41,0.22,11.01,36.38
4.77,-1.55,10.56,36.42
4.99,-1.82,8.13,36.39
1.69,-0.78,7.58,36.41
-0.64,0.54,10.09,36.37
1.65,1.09,10.64,36.34
6.01,-0.67,9.69,36.39
5.43,-2.64,8.57,36.39
1.62,-0.0,7.15,36.37
-1.66,0.71,10.01,36.39
1.35,0.06,11.16,36.33
4.38,-1.19,11.04,36.35
6.41,-2.22,7.11,36.4
0.35,-0.27,9.64,36.33
-1.09,-0.12,10.41,36.38
1.07,0.93,10.83,36.36
3.72,-1.33,10.49,36.37
6.04,-1.45,7.65,36.42
0.07,-0.47,9.52,36.38
-1.77,0.63,10.11,36.37
1.23,1.34,11.34,36.37
4.69,-0.36,6.51,36.31
-0.1,-0.46,8.51,36.32
1.83,1.19,11.05,36.38
2.45,-0.04,10.71,36.37
5.49,-1.66,8.41,36.37
4.93,-1.26,8.35,36.35
0.53,-0.67,8.32,36.36
0.31,0.53,9.98,36.39
2.9,-0.06,10.88,36.35
5.51,-0.64,8.54,36.37
4.6,-1.98,8.76,36.37
0.15,-0.32,8.28,36.35
-0.52,1.2,9.52,36.35
2.6,0.51,11.15,36.39
6.14,-1.43,8.77,36.37
4.6,-2.31,7.84,36.37
0.22,0.05,9.2,36.35
0.05,0.2,10.43,36.41
1.59,0.64,11.37,36.41
-0.06,0.43,11.02,36.39
2.79,0.16,8.84,36.4
4.9,-1.01,7.13,36.36
-0.92,0.16,7.97,36.38
-3.2,0.2,11.45,36.36
1.57,0.95,10.03,36.41
3.99,-0.29,9.28,36.34
3.53,-1.08,6.89,36.35
-1.98,0.71,6.8,36.38
-3.47,-0.2,11.09,36.39
-0.94,0.51,10.59,36.36
-0.11,0.28,10.05,36.37
3.82,-2.83,8.63,36.37
0.92,-2.08,8.2,36.36
-2.71,-0.44,10.32,36.38
-2.22,-0.2,11.6,36.35
0.48,0.24,10.76,36.4
3.37,-2.42,9.39,36.38
0.34,-1.58,7.59,36.42
-0.73,0.55,8.69,36.34
0.77,-0.06,9.36,36.37
1.76,0.32,11.21,36.37
3.63,-0.64,9.9,36.36
7.12,-1.65,8.26,36.35
2.6,-0.73,7.46,36.39
-2.15,0.36,10.03,36.34
0.51,0.03,11.26,36.36
3.15,0.05,10.08,36.38
5.39,-1.94,7.97,36.37
0.26,-0.17,8.26,36.36
-2.52,0.19,10.9,36.33
0.18,-0.22,11.52,36.35
1.66,-0.2,9.5,36.36
4.05,-1.57,8.76,36.38
0.1,-1.33,8.1,36.34
-3.97,1.07,9.17,36.36
-0.27,0.52,11.2,36.37
2.99,0.26,10.04,36.37
4.07,-1.65,7.68,36.37
1.19,-0.94,11.91,36.37
3.66,-1.67,10.37,36.36
6.53,-1.85,8.26,36.37
2.34,-1.65,7.81,36.35
-1.19,0.35,8.7,36.35
2.0,0.47,10.97,36.37
4.89,-1.75,10.62,36.29
4.1,-1.29,7.34,36.34
2.06,-1.94,9.13,36.34
-0.51,-0.33,10.29,36.36
1.71,0.78,9.99,36.36
6.49,-1.25,10.52,36.34
6.45,-2.37,8.56,36.33
0.67,-0.9,8.37,36.38
-0.11,-0.31,10.67,36.4
1.96,0.5,11.12,36.35
4.02,-0.68,9.87,36.33
6.43,-2.97,9.29,36.33
3.58,-1.4,8.57,36.35
-0.85,0.43,9.69,36.39
1.48,1.24,10.4,36.33
5.1,-1.27,11.11,36.41
7.1,-2.51,8.85,36.33
1.19,0.39,7.09,36.33
0.59,0.02,10.22,36.39
1.79,1.32,11.12,36.35
4.47,-0.05,9.42,36.35
7.27,-2.66,7.37,36.38
0.49,-0.37,7.79,36.34
-0.31,0.6,9.5,36.34
2.54,0.68,11.12,36.32
4.89,-1.29,9.76,36.32
4.82,-1.04,6.68,36.38
-1.0,-0.52,8.59,36.37
-1.65,0.69,9.91,36.35
-0.31,1.02,10.13,36.32
2.46,-0.22,8.81,36.34
3.98,-1.87,8.32,36.32
-1.6,-1.05,8.64,36.4
-2.89,0.22,10.0,36.39
0.35,0.09,10.95,36.3
3.31,-0.22,10.32,36.32
3.91,-2.13,8.36,36.33
-0.75,-0.68,8.55,36.37
-1.2,-0.32,11.35,36.35
-0.75,0.29,11.15,36.32
0.25,1.23,11.22,36.33
6.24,-0.17,10.87,36.32
8.85,-3.35,7.97,36.34
2.01,-0.16,7.09,36.34
0.21,0.19,9.58,36.37
0.84,1.48,10.39,36.32
4.92,0.72,9.48,36.28
6.06,-2.44,7.35,36.32
-0.75,-0.03,7.43,36.34
0.68,-0.34,10.71,36.35
0.04,1.26,10.46,36.32
3.53,-0.91,9.85,36.36
4.82,-1.61,7.82,36.34
-3.02,-0.21,8.28,36.32
-3.07,0.17,11.06,36.35
-1.07,-0.17,11.02,36.36
1.15,0.62,9.21,36.37
3.05,-2.39,9.15,36.35
-2.09,-0.69,8.98,36.34
-4.16,0.06,10.98,36.36
-1.02,0.01,11.72,36.33
0.35,-0.34,9.24,36.35
1.78,-1.17,8.46,36.37
-2.88,-1.69,9.24,36.32
-4.86,-0.29,11.76,36.37
-0.17,-0.8,11.45,36.34
2.38,-0.36,9.55,36.32
3.93,-2.03,7.7,36.36
-0.14,-1.69,9.21,36.31
-2.75,-0.12,11.56,36.34
0.65,-0.04,10.88,36.35
1.82,-0.45,9.56,36.34
3.4,-1.21,7.52,36.35
-1.97,-0.72,8.52,36.3
-5.0,0.81,10.13,36.35
0.76,0.7,10.69,36.33
2.38,-1.72,10.13,36.29
5.32,-1.8,6.85,36.36
-1.53,-1.43,8.48,36.29
-4.17,0.53,10.65,36.32
0.75,-0.51,11.14,36.3
2.82,-1.13,9.82,36.3
5.86,-1.38,6.21,36.34
-0.9,-1.22,8.97,36.31
3.41,-2.16,10.41,36.28
3.92,-3.12,8.43,36.3
-2.65,-1.51,10.02,36.27
-1.9,1.0,11.42,36.3
0.53,-0.28,12.64,36.29
4.6,-0.61,8.63,36.3
3.11,-2.46,8.4,36.28
-3.3,-0.36,10.01,36.29
-1.81,0.86,11.3,36.29
-0.58,-0.07,10.01,36.3
3.38,-0.31,8.74,36.3
1.6,-2.66,9.8,36.34
-2.29,-0.0,8.53,36.33
-3.01,0.1,10.92,36.33
-1.65,0.24,11.17,36.35
2.97,0.47,8.39,36.27
3.36,-1.41,7.92,36.3
-3.0,-0.7,8.51,36.31
-2.75,0.71,10.62,36.29
1.01,1.19,9.18,36.36
3.15,-0.83,8.99,36.32
2.09,-0.55,6.95,36.33
-1.83,-0.94,8.88,36.32
-2.67,-0.01,10.87,36.27
1.89,0.91,10.09,36.33
4.35,-0.61,8.2,36.26
2.55,-0.95,6.16,36.31
-3.89,-0.35,9.16,36.28
-3.75,0.43,10.7,36.3
1.48,0.68,9.36,36.33
3.39,-0.72,8.28,36.34
2.45,-1.38,7.11,36.29
-2.98,0.92,8.09,36.28
-1.48,0.17,11.09,36.3
1.73,0.13,10.08,36.3
3.38,-0.52,7.97,36.29
3.91,-1.3,6.93,36.3
-2.73,0.73,7.89,36.3
-2.18,0.88,10.5,36.32
-1.67,0.07,11.07,36.3
1.08,0.55,10.17,36.3
5.79,-1.5,8.03,36.34
0.9,-1.4,7.64,36.3
-3.72,0.75,9.45,36.34
-0.39,0.69,10.61,36.31
1.45,0.48,10.29,36.27
4.59,-0.76,7.64,36.32
1.17,-1.72,7.71,36.25
-3.55,0.91,8.91,36.27
-1.39,0.98,10.58,36.28
0.7,0.1,9.62,36.29
3.58,-0.94,7.01,36.3
-1.04,-0.79,7.82,36.3
-4.12,0.7,9.82,36.27
-3.11,0.13,11.37,36.27
-0.17,0.38,10.66,36.29
3.99,-0.92,7.99,36.3
1.69,-1.27,8.28,36.31
5.66,-0.59,6.31,36.33
4.18,-1.05,6.31,36.3
0.15,1.09,8.41,36.28
0.96,0.25,10.07,36.29
4.28,0.62,8.69,36.27
7.02,-1.47,6.51,36.27
2.82,-1.25,7.02,36.24
-0.96,1.75,7.91,36.25
0.85,0.49,10.26,36.3
4.31,-1.39,9.57,36.29
5.75,-1.87,7.46,36.29
3.87,-1.34,7.99,36.21
0.16,0.16,8.94,36.3
0.24,0.32,10.53,36.32
3.81,-1.18,10.18,36.27
5.51,-2.37,8.6,36.29
3.4,-1.13,7.45,36.26
-0.37,0.42,8.83,36.29
0.17,0.16,10.81,36.28
4.3,-0.93,10.73,36.29
6.5,-2.86,8.49,36.26
2.68,-0.97,7.99,36.27
-0.86,0.45,10.54,36.29
1.34,0.42,10.75,36.28
4.84,-1.6,10.56,36.24
5.78,-2.6,7.74,36.3
1.96,-0.13,7.57,36.25
0.43,0.03,9.87,36.3
2.44,0.92,10.18,36.26
3.92,-0.84,10.81,36.3
8.23,-2.79,8.24,36.29
3.22,-1.31,8.36,36.32
-0.64,0.18,10.29,36.26
2.44,1.33,10.18,36.27
3.91,0.17,9.5,36.28
5.32,-2.3,7.95,36.27
-0.01,0.3,8.09,36.32
-0.28,-0.51,9.72,36.28
1.65,1.65,10.01,36.33
3.83,-0.07,9.46,36.24
2.07,-1.37,8.09,36.29
0.79,-1.25,7.94,36.29
-2.79,0.3,9.86,36.24
-1.38,-0.25,10.69,36.27
3.22,-0.75,9.83,36.27
4.05,-1.52,8.15,36.27
1.66,-0.54,7.02,36.25
-3.3,0.73,9.61,36.24
-1.65,0.71,10.58,36.27
2.45,-1.12,9.06,36.26
4.16,-2.23,8.03,36.24
0.4,-0.22,7.37,36.25
-4.14,1.11,9.45,36.31
-0.59,-0.03,11.17,36.28
1.97,-1.36,9.32,36.25
4.54,-2.0,8.11,36.23
2.17,0.06,7.01,36.26
-2.24,1.52,8.65,36.27
-0.27,-0.42,11.01,36.26
4.89,-2.31,9.86,36.25
6.24,-0.87,6.85,36.26
2.06,-0.31,6.87,36.29
-1.44,1.73,9.15,36.24
0.92,-0.05,11.4,36.26
4.65,-1.77,9.68,36.24
4.96,-1.13,6.53,36.23
1.9,-0.17,6.87,36.23
-1.39,1.47,9.65,36.27
1.16,0.98,10.35,36.25
4.26,-2.17,9.89,36.28
4.46,-1.36,7.57,36.27
1.01,0.12,7.92,36.22
-0.57,0.14,8.43,36.24
0.69,1.23,9.99,36.27
3.23,-1.44,10.95,36.24
4.1,-0.91,7.93,36.27
3.34,-0.67,7.38,36.24
1.36,-0.28,8.96,36.26
-0.88,1.4,9.42,36.28
2.5,0.01,9.93,36.26
5.27,-1.86,8.89,36.27
3.52,-1.06,6.87,36.28
-0.68,0.31,8.63,36.26
-0.48,1.01,10.47,36.22
2.62,0.11,11.51,36.25
4.14,-1.47,8.18,36.3
3.84,0.19,7.91,36.26
5.34,-2.71,9.01,36.24
1.97,-0.4,7.26,36.26
-3.1,1.07,9.01,36.24
-2.64,-0.16,11.96,36.23
1.48,-0.33,9.43,36.23
3.39,-1.68,8.41,36.25
1.65,-0.74,6.74,36.27
-3.53,1.05,8.7,36.21
-1.87,-0.08,11.21,36.25
2.82,-0.64,9.75,36.27
3.68,-1.69,8.31,36.21
2.61,-0.84,6.21,36.22
-2.04,0.17,9.76,36.26
-0.49,-0.36,11.27,36.27
3.04,0.29,9.33,36.27
4.58,-2.46,8.26,36.25
2.48,0.02,6.85,36.21
-2.95,0.55,8.87,36.24
0.41,0.52,10.65,36.27
-0.67,0.25,10.37,36.24
-1.1,0.12,10.01,36.27
2.24,0.71,10.51,36.24
6.05,-2.45,10.35,36.23
5.14,-1.72,7.01,36.31
0.62,-0.71,8.41,36.24
-0.77,0.72,10.68,36.22
2.16,-0.2,10.69,36.24
4.38,-2.33,9.75,36.25
4.72,-1.13,7.51,36.26
0.05,-0.82,9.4,36.26
-0.85,0.27,10.23,36.31
2.09,1.32,10.12,36.25
4.56,-1.45,9.74,36.24
4.23,-1.69,7.68,36.25
-0.46,-0.44,9.19,36.29
-0.23,-0.23,10.63,36.25
1.87,0.76,10.1,36.22
3.96,-1.64,9.77,36.23
4.99,-2.43,7.54,36.24
4.32,-0.91,6.69,36.27
0.83,0.16,8.21,36.26
-1.53,2.2,9.09,36.26
0.02,-0.18,10.98,36.24
4.19,-1.52,8.6,36.23
4.69,-2.13,7.53,36.25
-1.52,0.97,7.47,36.29
-0.88,1.23,8.96,36.22
1.62,0.11,10.89,36.22
3.36,-2.07,8.98,36.25
4.81,-0.49,7.21,36.22
-0.73,-0.36,9.07,36.23
-1.54,1.56,10.01,36.24
1.43,-0.31,11.49,36.22
6.04,-2.74,9.52,36.22
2.96,-1.31,7.36,36.24
0.25,0.63,8.86,36.26
0.47,0.5,10.64,36.25
2.18,0.5,11.1,36.27
6.7,-2.29,8.87,36.23
4.8,-2.03,7.87,36.2
0.35,-0.43,9.19,36.23
0.29,0.93,9.56,36.21
4.55,0.23,10.58,36.21
6.83,-2.19,8.49,36.22
2.86,-0.31,6.97,36.25
1.23,-0.67,9.72,36.24
0.4,0.65,10.3,36.22
2.9,-0.11,10.53,36.21
6.81,-2.26,9.48,36.27
3.17,-1.6,7.88,36.2
-1.44,-0.18,9.64,36.2
-0.05,0.42,9.72,36.24
1.06,0.73,10.66,36.24
5.25,-1.6,8.88,36.22
3.34,-2.27,8.23,36.23
1.54,-0.53,7.64,36.23
0.2,0.91,9.55,36.2
0.82,0.24,10.92,36.22
3.01,-0.53,10.59,36.26
5.88,-1.65,8.0,36.24
3.51,-0.32,6.3,36.21
-0.14,1.08,8.4,36.24
-0.17,1.14,9.83,36.21
4.91,-0.68,10.23,36.21
5.88,-2.3,8.28,36.21
3.01,0.26,6.54,36.19
0.42,1.0,8.37,36.22
-0.02,-0.14,10.84,36.24
3.46,-0.55,10.28,36.19
6.64,-2.18,8.56,36.21
3.79,-1.53,7.52,36.23
-1.05,1.62,7.66,36.16
1.08,0.27,10.19,36.17
2.93,0.03,10.47,36.26
5.8,-2.15,8.36,36.21
3.8,-0.56,6.84,36.22
-1.52,0.96,8.77,36.24
3.86,-0.33,10.63,36.24
4.35,-1.42,9.08,36.22
3.59,-0.8,7.06,36.25
1.26,-0.25,8.09,36.17
-1.74,1.22,9.72,36.19
0.1,0.96,10.13,36.28
5.2,-2.6,10.2,36.19
2.76,-1.25,7.51,36.2
-0.7,0.41,7.99,36.22
-0.88,-0.23,10.29,36.23
0.89,0.46,10.94,36.2
3.22,-1.29,9.49,36.21
3.87,-0.58,7.82,36.19
-0.67,-0.84,8.92,36.19
-1.02,0.76,9.87,36.15
1.91,0.16,10.99,36.16
5.6,-1.3,9.79,36.24
2.84,-1.75,8.19,36.2
-0.21,0.3,8.03,36.2
0.04,0.53,10.23,36.21
-2.39,0.23,8.68,36.22
-1.54,0.37,9.44,36.22
-1.02,0.62,11.32,36.16
3.57,0.5,8.76,36.2
6.87,-3.02,8.91,36.16
-0.09,-0.18,7.02,36.22
-0.03,-0.32,9.97,36.22
1.76,0.37,11.11,36.23
3.24,0.45,8.66,36.2
5.13,-1.72,8.75,36.18
1.22,-1.53,8.61,36.22
-3.47,1.38,9.54,36.18
-0.5,0.58,10.7,36.22
2.49,0.4,9.28,36.19
5.01,-1.54,8.19,36.17
-0.29,-1.14,8.38,36.19
-4.22,0.72,10.27,36.24
-0.84,1.2,11.17,36.23
1.67,-0.85,10.04,36.15
4.07,-1.69,8.38,36.2
0.04,-1.2,8.37,36.17
-3.93,0.72,10.3,36.21
-1.4,0.04,11.57,36.23
2.81,-0.96,9.88,36.19
4.43,-1.29,7.35,36.21
-1.56,-0.85,7.9,36.17
-3.57,1.32,9.39,36.19
-0.34,-0.99,11.43,36.19
3.2,-1.12,8.91,36.21
4.15,-1.13,6.55,36.21
-1.25,-0.89,8.3,36.18
-3.85,0.74,10.49,36.19
-1.16,-0.71,10.99,36.21
2.49,-0.76,9.18,36.23
4.44,-1.08,6.83,36.22
0.21,-0.42,7.41,36.19
-2.93,1.09,9.33,36.19
0.91,-0.52,10.67,36.2
1.92,-0.31,8.58,36.21
-0.76,-0.12,8.38,36.19
-1.9,0.07,10.38,36.19
-0.59,0.75,11.19,36.18
3.47,-0.18,10.3,36.2
6.23,-2.73,8.68,36.2
0.98,-0.74,7.42,36.21
-2.05,0.69,10.3,36.22
0.16,0.35,11.47,36.2
0.98,-0.23,9.61,36.22
5.23,-2.11,9.03,36.2
1.19,-0.81,8.1,36.22
-4.46,0.82,9.22,36.2
-1.93,0.66,11.25,36.21
1.99,-0.49,9.87,36.19
4.79,-0.71,7.8,36.22
0.41,-1.17,7.48,36.2
-2.42,1.05,9.29,36.19
-0.09,-0.02,10.97,36.23
1.94,-0.4,9.63,36.19
0.82,1.21,8.1,36.22
-2.59,0.79,9.11,36.21
-0.58,0.34,10.62,36.19
3.55,-0.56,8.51,36.21
5.15,-1.05,7.04,36.23
0.51,-0.57,7.35,36.17
-1.83,1.87,8.19,36.18
0.41,0.25,11.35,36.19
3.0,-0.5,9.03,36.21
5.13,-1.04,6.19,36.18
0.77,0.07,7.2,36.19
-1.6,1.42,8.83,36.19
1.88,0.22,11.28,36.18
5.11,-2.44,9.33,36.2
4.49,-0.38,6.63,36.19
2.26,-0.72,8.61,36.19
0.5,0.74,9.85,36.18
2.32,0.45,10.61,36.19
5.45,-2.25,9.61,36.16
4.48,-1.15,7.18,36.19
-0.41,-0.06,10.9,36.21
0.4,1.23,10.31,36.17
3.76,-0.79,10.48,36.14
6.07,-2.56,8.08,36.15
0.56,-0.4,7.93,36.17
-0.43,0.32,10.33,36.13
-0.26,0.84,10.51,36.2
3.53,-0.52,10.11,36.14
6.1,-2.86,8.89,36.17
0.67,-0.17,7.82,36.15
-0.58,0.62,9.84,36.22
0.7,-0.18,11.05,36.2
3.53,-0.05,8.51,36.19
5.15,-1.94,8.54,36.2
-0.07,-0.72,8.46,36.18
-3.23,1.05,10.57,36.22
0.82,-0.61,11.46,36.19
2.6,-0.46,9.04,36.18
3.83,-1.36,7.98,36.17
-0.18,-0.67,8.65,36.14
-3.45,0.66,10.35,36.19
0.43,-0.31,11.0,36.23
3.1,-1.0,9.69,36.17
5.0,-1.23,6.92,36.19
-0.65,-0.19,7.68,36.12
-2.85,0.97,10.12,36.15
0.87,-0.96,11.44,36.14
3.03,0.08,7.94,36.13
5.2,-1.28,6.58,36.16
0.25,-0.33,8.0,36.19
-2.42,1.05,9.42,36.15
0.64,-0.4,11.13,36.18
3.57,-0.74,8.75,36.21
4.29,-0.8,6.4,36.22
-0.34,-0.39,7.79,36.14
-3.43,0.36,8.58,36.14
-2.91,0.02,10.89,36.16
2.37,-0.48,10.14,36.17
4.34,-1.54,7.85,36.17
3.85,-1.39,7.13,36.17
-2.2,0.22,8.46,36.18
-1.38,0.88,11.21,36.17
2.1,-1.3,10.33,36.19
3.87,-1.26,7.76,36.19
-0.01,0.73,8.73,36.12
-2.08,0.4,9.24,36.17
0.34,0.25,11.31,36.13
3.14,-1.87,9.85,36.17
5.95,-1.18,7.11,36.17
2.44,-0.84,7.6,36.15
-2.03,0.97,8.62,36.16
0.48,0.78,10.29,36.17
4.49,-1.97,9.75,36.14
5.86,-1.78,7.45,36.16
1.49,0.15,6.68,36.12
-0.23,1.81,8.06,36.1
0.93,0.14,11.33,36.16
4.86,-1.03,9.07,36.16
7.07,-1.25,7.36,36.15
2.58,0.03,7.05,36.16
-0.08,0.98,9.26,36.16
2.67,0.75,11.16,36.13
6.18,-2.21,9.67,36.12
4.19,-1.07,7.36,36.17
0.96,0.31,7.8,36.18
0.26,0.57,9.73,36.14
1.69,0.61,10.35,36.15
5.54,-1.66,9.3,36.16
4.76,-2.43,7.61,36.17
1.01,-0.37,7.86,36.13
-0.1,0.43,9.69,36.14
1.36,0.13,10.47,36.14
5.19,-1.18,8.77,36.17
4.5,-1.92,7.91,36.18
1.41,-1.05,8.2,36.15
-0.31,0.83,9.21,36.19
2.11,0.32,10.7,36.1
4.81,-1.25,9.39,36.17
5.91,-1.42,7.45,36.19
1.15,-1.28,8.62,36.14
-0.05,0.55,9.49,36.16
4.51,-0.01,10.5,36.15
5.46,-1.06,9.51,36.18
6.6,-1.7,7.86,36.14
1.58,-0.29,8.45,36.12
0.35,1.1,9.01,36.13
2.92,-2.13,7.82,36.13
-2.18,0.1,8.7,36.17
-2.02,0.86,10.88,36.11
0.42,1.18,9.77,36.16
4.76,-0.64,7.71,36.17
3.42,-1.98,7.17,36.17
-3.76,0.37,8.63,36.15
-1.88,0.35,11.64,36.14
2.09,-0.63,10.43,36.15
3.66,-0.85,8.33,36.12
3.71,-1.24,6.96,36.14
-0.32,-1.14,7.92,36.15
-1.25,1.05,10.36,36.12
3.22,-0.75,10.71,36.14
2.98,0.0,8.5,36.13
5.26,-1.0,7.69,36.12
0.48,-0.33,7.39,36.15
-2.91,0.91,9.98,36.14
0.71,-0.12,11.42,36.13
4.13,0.18,8.28,36.12
2.76,-0.32,10.02,36.15
4.36,0.31,8.04,36.16
5.06,-1.21,7.41,36.13
-0.84,-0.09,8.08,36.14
-2.87,0.21,10.48,36.12
1.91,0.77,10.66,36.14
4.09,-0.53,8.74,36.17
3.47,-1.45,7.0,36.14
-3.44,1.08,7.47,36.19
-2.56,0.86,10.27,36.1
1.49,-0.23,11.49,36.11
1.3,-1.12,8.72,36.1
3.65,-1.0,7.3,36.14
-2.01,-1.45,9.34,36.07
-3.08,1.12,10.37,36.12
0.95,0.26,10.66,36.12
2.59,-0.8,8.68,36.14
2.68,-0.32,6.6,36.11
-2.3,0.16,8.2,36.17
6.64,-2.58,9.84,36.14
5.74,-1.23,7.96,36.13
5.33,-1.53,7.32,36.11
0.35,0.17,9.0,36.14
2.28,0.52,10.58,36.14
6.5,0.23,9.76,36.11
6.05,-1.19,8.37,36.09
4.32,-1.07,7.52,36.14
2.88,0.44,8.39,36.16
2.29,1.09,9.66,36.16
3.68,1.36,9.2,36.11
6.24,-1.67,7.68,36.17
3.26,-1.05,7.73,36.12
-0.29,0.73,8.33,36.11
0.66,1.08,9.88,36.13
2.53,0.1,10.36,36.13
5.76,-1.6,7.27,36.14
2.18,-0.71,7.8,36.09
-0.93,0.61,8.96,36.12
0.42,0.93,10.47,36.13
2.7,-0.34,7.07,35.88
0.35,-0.23,9.53,35.88
0.54,0.32,10.68,35.86
2.74,0.21,10.67,35.9
7.16,-2.73,8.88,35.9
2.51,-0.68,7.76,35.85
-0.41,0.65,9.11,35.87
0.14,0.64,11.37,35.89
2.7,0.16,10.14,35.88
5.75,-2.13,8.8,35.87
1.74,-0.63,7.37,35.87
-2.11,0.64,9.84,35.9
-0.24,0.09,11.61,35.87
1.24,-0.26,9.94,35.87
4.69,-1.45,7.88,35.9
1.38,-1.26,8.24,35.88
-2.96,0.97,9.47,35.86
0.21,0.33,11.34,35.89
2.01,-0.97,10.3,35.87
4.39,-1.15,8.17,35.87
3.02,-1.13,6.2,35.83
-2.25,1.13,8.09,35.89
-1.7,-0.41,11.12,35.9
2.64,0.07,9.36,35.86
5.63,-1.07,7.71,35.88
3.08,-1.66,7.84,35.87
0.3,0.68,8.47,35.9
1.05,0.08,10.58,35.85
2.52,0.45,9.97,35.82
4.27,-0.74,7.52,35.85
3.96,-1.53,7.97,35.86
0.77,1.05,7.93,35.84
0.52,0.9,9.61,35.87
-0.02,0.34,10.79,35.86
4.97,-0.75,9.96,35.89
5.55,-1.61,7.29,35.84
2.68,-0.2,7.62,35.89
0.25,0.61,9.18,35.89
2.1,0.5,10.37,35.8
6.37,-1.0,9.86,35.85
2.24,-1.34,8.26,35.84
3.17,-0.85,7.18,35.84
-0.93,-0.87,10.28,35.85
0.5,0.96,10.09,35.86
4.66,-0.72,9.74,35.83
4.33,-2.18,8.11,35.81
-0.26,0.35,7.47,35.84
-0.94,0.03,10.01,35.85
0.86,-0.49,11.43,35.88
3.9,-0.41,9.5,35.83
6.61,-2.42,7.8,35.84
0.8,-1.27,8.53,35.88
-0.29,-0.3,10.71,35.86
2.72,0.97,10.58,35.88
5.04,-1.07,9.91,35.84
5.01,-1.53,7.94,35.85
-0.21,-0.15,7.69,35.81
-1.08,-0.61,10.91,35.85
0.22,0.32,10.82,35.89
-2.55,1.06,8.84,35.83
-0.97,0.57,10.92,35.87
3.62,-1.32,10.57,35.87
4.82,-0.5,7.55,35.83
3.82,-0.79,7.1,35.88
-1.21,0.32,8.95,35.82
-0.52,1.59,10.72,35.82
3.91,-1.72,10.96,35.86
4.9,-0.68,7.01,35.9
3.21,-1.47,6.88,35.87
-2.55,0.61,8.98,35.88
-0.59,1.4,10.13,35.84
3.56,-1.18,10.59,35.86
3.58,-1.11,8.02,35.85
2.22,-0.89,7.37,35.83
-0.83,-0.25,9.41,35.84
0.77,0.89,10.39,35.84
4.94,-0.16,10.97,35.88
5.09,-1.32,8.9,35.85
2.55,-2.22,8.69,35.85
0.06,0.47,8.61,35.86
2.19,-1.01,11.51,35.84
3.87,-1.19,8.45,35.87
4.28,-0.62,6.34,35.82
-1.68,-0.86,9.06,35.89
-2.79,0.74,10.3,35.87
0.97,-0.44,10.65,35.86
4.66,-1.37,8.49,35.83
3.25,-1.25,7.73,35.84
-1.33,0.14,8.3,35.88
-1.93,1.28,9.94,35.84
0.08,-0.47,10.86,35.87
2.91,-0.24,8.22,35.85
3.43,-1.65,7.95,35.79
0.26,-0.37,7.62,35.89
-2.92,0.67,9.7,35.85
2.2,-0.34,10.92,35.87
4.02,-1.16,8.91,35.85
4.35,-1.63,6.99,35.82
0.56,0.39,8.31,35.83
0.59,0.71,9.64,35.82
0.7,-0.31,7.2,35.81
-1.12,-0.06,10.15,35.87
-0.67,0.98,11.28,35.83
1.07,0.49,10.04,35.86
5.35,-2.03,9.08,35.81
4.09,-2.22,7.91,35.82
-0.46,0.43,7.72,35.79
-0.62,0.53,10.6,35.9
0.97,0.31,11.27,35.8
4.71,-0.28,9.07,35.79
4.01,-2.19,7.57,35.83
-2.85,0.12,8.26,35.81
-2.27,0.08,11.38,35.84
0.51,-0.69,11.88,35.84
2.23,-0.51,8.89,35.8
3.78,-0.73,7.07,35.83
-1.81,-0.96,9.22,35.82
-3.59,0.72,11.09,35.77
-0.1,0.47,10.74,35.83
2.47,-1.02,8.43,35.84
4.37,-1.68,9.02,35.83
4.41,-0.8,7.59,35.79
-0.9,-0.84,8.39,35.8
-5.44,0.38,10.88,35.82
0.1,0.17,11.37,35.82
3.65,-1.0,10.69,35.78
3.65,-0.68,6.45,35.78
-1.69,-0.07,7.9,35.82
-2.4,0.48,11.3,35.8
0.07,0.0,11.55,35.82
2.57,0.22,8.54,35.8
4.98,-1.6,7.32,35.8
-1.3,-0.62,8.0,35.81
-4.03,1.57,9.13,35.82
-0.9,-0.09,11.66,35.79
3.4,-0.56,8.44,35.84
3.73,-1.53,7.26,35.8
0.15,-0.28,6.93,35.88
-3.8,1.13,9.81,35.82
-1.16,-0.06,10.72,35.87
2.07,-0.4,8.54,35.84
3.62,-2.11,8.05,35.79
-0.17,-0.08,7.49,35.81
-3.01,1.36,9.51,35.85
1.83,-0.47,10.46,35.8
2.99,-1.04,8.22,35.79
3.75,-1.24,6.86,35.85
-0.13,0.55,7.77,35.82
-1.95,0.75,9.32,35.79
0.7,0.29,10.12,35.79
4.2,-1.95,9.26,35.83
3.68,-1.14,7.3,35.8
-0.08,-0.0,8.21,35.79
0.27,-0.06,10.27,35.82
1.53,0.32,11.11,35.81
5.66,-0.71,9.03,35.82
6.19,-1.43,8.22,35.81
1.29,-0.23,7.74,35.85
1.58,1.88,8.55,35.78
5.06,-1.55,7.92,35.79
3.96,0.49,6.02,35.8
-1.84,0.86,8.7,35.82
-0.79,0.45,11.53,35.79
3.93,-0.76,10.01,35.8
5.33,-1.49,7.65,35.82
2.45,-0.68,7.03,35.79
-1.79,0.96,8.59,35.79
-0.62,0.68,11.32,35.79
1.94,-0.64,11.96,35.77
4.73,-0.86,9.09,35.75
1.01,-0.6,7.43,35.8
-0.49,0.02,7.8,35.77
-0.38,0.7,9.9,35.81
1.55,0.45,10.35,35.82
5.88,-1.05,8.93,35.82
4.25,-1.19,7.76,35.82
0.93,-0.94,8.39,35.78
-0.89,0.28,10.2,35.8
3.4,-0.2,11.5,35.74
4.67,-1.34,9.56,35.78
4.76,-0.25,6.43,35.77
0.01,-1.3,9.01,35.82
-1.99,0.9,9.82,35.8
2.44,0.66,10.05,35.8
4.84,-1.3,8.78,35.81
3.54,-1.59,7.69,35.79
0.2,-0.69,8.61,35.77
0.08,0.23,10.42,35.8
2.73,0.01,10.16,35.79
6.18,-1.39,8.9,35.79
4.55,-1.39,7.71,35.82
2.33,-1.2,8.65,35.83
1.38,0.55,9.35,35.8
3.33,0.31,9.66,35.85
6.33,-0.56,8.46,35.78
3.79,-1.47,7.22,35.78
-0.0,-0.47,8.88,35.77
0.05,0.61,9.5,35.75
-4.89,-0.26,9.81,35.76
-3.78,0.68,9.91,35.77
0.0,-1.08,11.81,35.79
2.38,0.55,9.24,35.74
5.03,-1.71,7.72,35.78
-1.12,-1.17,7.87,35.74
-3.29,0.45,9.95,35.75
-2.38,0.76,9.44,35.76
1.64,-0.28,11.0,35.73
2.88,0.12,9.23,35.75
3.31,-0.89,6.65,35.79
1.22,-0.72,8.43,35.8
-1.15,-0.27,9.26,35.8
2.06,0.69,10.3,35.74
5.56,-1.44,9.56,35.78
4.37,-0.82,6.67,35.78
-0.05,-1.23,8.29,35.79
-1.04,1.08,9.28,35.76
2.24,0.93,11.19,35.76
4.94,-1.06,9.85,35.76
5.09,-0.75,6.33,35.79
1.28,0.03,7.39,35.82
0.27,0.28,9.81,35.75
2.6,1.67,10.04,35.74
5.71,-1.44,8.13,35.77
4.72,-0.16,6.44,35.77
0.26,-0.84,8.51,35.79
1.32,-1.65,8.05,35.75
-3.08,-0.52,9.14,35.77
-3.31,-0.28,11.41,35.78
1.96,0.0,10.77,35.76
3.27,-0.83,9.08,35.79
3.15,-0.84,7.73,35.76
-0.8,0.05,8.39,35.74
-0.94,0.43,10.95,35.74
1.24,0.54,9.58,35.79
3.78,-0.7,8.25,35.77
2.71,-2.06,7.22,35.79
-2.72,-0.09,7.95,35.75
-0.89,0.25,10.85,35.79
0.31,0.05,9.68,35.8
2.35,0.11,7.88,35.77
4.52,-0.95,7.06,35.81
-1.44,0.2,7.35,35.79
-2.89,1.01,10.51,35.79
0.74,-1.02,11.2,35.76
4.67,-1.72,8.06,35.6
1.91,-1.14,8.24,35.59
0.49,0.63,8.54,35.63
2.33,1.14,11.09,35.57
6.82,-0.53,10.8,35.61
7.22,-1.02,7.9,35.61
2.12,-1.01,7.41,35.58
-0.2,-0.22,10.34,35.57
1.58,1.13,10.8,35.58
5.49,-0.46,10.22,35.56
4.95,-1.44,8.55,35.59
1.97,-1.43,9.07,35.63
-0.11,-0.43,10.64,35.61
0.97,0.93,9.91,35.61
5.26,-1.63,11.0,35.61
8.65,-1.21,8.56,35.54
5.08,-0.79,6.55,35.53
0.6,-0.55,8.39,35.58
0.92,1.89,9.69,35.62
5.38,-0.9,10.89,35.58
7.0,-2.41,7.77,35.62
4.38,-1.69,7.41,35.65
0.42,-1.0,9.75,35.54
0.74,0.75,10.7,35.56
2.29,-0.27,12.49,35.55
5.65,-1.5,9.19,35.59
3.42,-1.79,7.85,35.57
-0.27,-1.44,9.73,35.58
-0.28,-0.16,11.35,35.56
3.07,0.53,10.9,35.61
4.99,-1.46,9.73,35.57
2.12,-2.66,8.15,35.6
-0.56,-0.69,9.72,35.57
1.04,-0.2,11.73,35.61
1.45,0.91,9.78,35.56
3.34,-1.4,9.29,35.56
3.03,-2.62,7.7,35.59
-2.52,0.0,9.22,35.57
-1.16,0.14,10.87,35.6
2.63,0.96,10.39,35.6
4.53,-1.28,6.86,35.54
-0.07,0.16,7.73,35.59
-1.58,0.49,11.15,35.57
3.75,-0.75,10.63,35.64
6.4,-0.49,8.43,35.57
2.83,-0.98,6.81,35.59
-2.43,1.0,7.75,35.6
-2.21,0.78,9.93,35.56
2.81,-0.78,11.12,35.61
4.12,-1.13,7.94,35.57
4.89,-1.19,6.47,35.57
0.11,-1.21,9.54,35.6
-1.55,0.53,10.59,35.58
3.26,0.62,9.79,35.59
5.1,-1.81,8.15,35.57
2.55,-0.89,6.56,35.57
0.0,-0.54,8.72,35.55
0.74,0.35,10.31,35.59
3.5,1.02,10.64,35.54
4.92,-1.87,8.46,35.57
4.62,-1.34,7.29,35.59
0.1,-0.66,8.56,35.56
1.53,1.08,9.86,35.57
3.9,1.05,10.17,35.59
6.44,-1.14,7.59,35.58
4.09,-1.75,7.24,35.59
0.73,0.74,7.96,35.59
0.72,0.45,10.26,35.58
4.26,0.62,9.68,35.57
7.91,-1.97,7.25,35.54
3.81,-0.81,6.79,35.55
0.89,-0.57,8.94,35.57
0.52,1.1,9.97,35.56
4.66,-0.02,9.9,35.59
6.03,-1.56,7.87,35.58
1.12,-2.02,8.54,35.56
-0.04,-0.61,9.69,35.57
0.95,0.24,10.46,35.52
1.56,0.18,9.46,35.56
-2.98,-0.18,8.5,35.59
-1.25,0.89,10.73,35.56
1.56,-0.1,10.37,35.58
3.69,-1.38,8.01,35.52
2.5,-1.47,6.74,35.55
-3.67,0.07,9.03,35.54
-2.77,0.01,11.55,35.57
0.38,0.04,10.55,35.49
3.14,-1.32,8.11,35.61
3.13,-0.5,6.17,35.55
-3.19,-0.03,8.71,35.59
-2.34,0.49,11.18,35.57
1.75,-0.56,10.78,35.59
4.47,-1.29,8.6,35.59
3.05,-0.73,6.65,35.55
-2.81,-1.05,9.47,35.59
-1.84,0.54,11.49,35.56
2.4,-0.47,10.7,35.59
2.2,-0.26,9.54,35.57
6.0,-1.13,7.11,35.54
-1.57,0.47,8.55,35.59
-1.48,1.28,8.54,35.57
0.13,-0.65,12.08,35.54
2.7,0.13,9.18,35.58
6.3,-0.99,7.25,35.57
0.66,-0.42,7.41,35.56
-4.0,0.86,9.31,35.55
0.71,0.07,11.12,35.55
3.0,0.48,8.38,35.5
3.45,-0.41,7.24,35.52
0.89,-1.04,8.26,35.55
-2.78,-0.1,9.62,35.57
-0.45,0.71,10.94,35.55
2.87,-0.34,9.93,35.54
4.19,-0.79,6.99,35.6
1.36,-0.25,7.12,35.55
-1.92,-0.6,9.91,35.54
-0.12,0.93,11.47,35.55
4.27,-0.61,9.78,35.54
2.78,-1.66,8.83,35.5
4.71,-0.51,7.58,35.56
2.21,-2.65,8.04,35.53
-2.98,0.11,10.02,35.52
-0.25,0.22,10.54,35.54
1.59,-1.22,10.38,35.53
3.39,0.01,7.8,35.54
0.88,-0.95,7.9,35.51
-3.26,-0.67,9.62,35.52
-0.76,-0.14,11.06,35.53
3.49,0.98,9.38,35.59
6.16,-1.2,8.1,35.54
0.92,-1.43,7.02,35.57
-2.99,0.44,8.45,35.53
-1.92,-0.52,11.09,35.53
1.02,0.18,10.14,35.54
4.28,-1.25,7.98,35.55
1.95,-0.75,6.62,35.57
-3.52,0.23,8.37,35.55
-0.56,0.8,11.42,35.52
3.88,-2.34,6.92,35.55
2.01,-1.22,7.59,35.56
-3.86,-1.17,10.49,35.53
-0.08,0.92,11.06,35.56
3.83,-1.24,10.36,35.55
3.24,-0.66,6.97,35.55
1.81,-1.07,7.73,35.52
-2.68,0.1,8.99,35.53
0.33,0.62,11.23,35.5
2.89,-1.13,10.25,35.51
4.48,-0.31,7.59,35.52
3.85,-1.72,6.96,35.51
-1.76,0.64,8.47,35.56
0.4,0.62,10.1,35.53
2.92,-0.26,9.95,35.55
4.87,-1.1,8.14,35.54
1.12,-1.21,7.61,35.54
-2.12,0.67,8.79,35.52
0.65,1.17,11.34,35.54
-1.81,0.05,11.79,35.53
1.42,-0.12,10.75,35.54
2.82,-0.57,7.75,35.54
1.77,-1.07,7.31,35.53
-5.09,-0.11,8.83,35.56
-2.74,0.25,11.71,35.47
1.96,-0.3,9.9,35.56
3.01,-1.7,9.0,35.49
1.91,-0.61,6.5,35.54
-3.59,-0.02,8.92,35.55
-0.69,0.1,10.98,35.52
1.1,-0.45,10.38,35.52
5.09,-0.53,7.81,35.56
4.29,-1.82,8.08,35.53
-1.81,0.62,7.58,35.48
-0.05,0.82,10.26,35.54
2.35,0.25,10.11,35.51
5.01,-0.26,7.86,35.51
2.7,-1.13,7.07,35.51
-1.21,0.29,7.55,35.53
-1.47,0.16,10.83,35.51
0.82,0.24,10.58,35.54
2.99,-0.98,11.35,35.52
4.3,-1.0,8.77,35.51
2.46,-1.92,7.52,35.5
-1.57,-0.33,9.31,35.54
-1.79,0.83,10.69,35.52
2.03,0.51,11.17,35.52
6.65,-0.56,9.04,35.51
1.99,-1.51,8.16,35.49
-0.69,-0.59,9.17,35.53
0.44,-0.32,11.51,35.52
3.0,0.43,9.76,35.52
5.72,-1.35,9.17,35.52
2.65,-1.6,7.7,35.58
-0.72,0.29,8.45,35.53
-0.52,0.29,10.16,35.48
1.81,0.91,10.07,35.52
4.98,-0.69,9.58,35.57
3.24,-2.2,7.82,35.51
-1.54,0.31,9.11,35.53
0.74,0.85,10.1,35.51
4.12,-1.86,10.3,35.49
4.36,-1.35,6.76,35.51
0.97,-0.59,6.65,35.5
1.08,-0.71,10.06,35.49
2.37,0.79,10.07,35.5
2.46,0.22,9.45,35.5
5.11,-1.23,8.37,35.48
2.63,-1.36,7.74,35.52
-0.17,1.15,8.61,35.52
1.89,0.48,10.48,35.51
4.29,0.09,10.7,35.5
5.72,-1.83,7.76,35.45
1.81,-1.43,7.23,35.5
-0.32,-0.47,9.81,35.51
1.96,1.17,10.02,35.51
5.9,-0.05,10.01,35.5
4.89,-1.03,7.12,35.5
