ax,ay,az,temp
-0.88,-11.6,-1.96,32.82
-1.01,-10.98,-1.06,32.79
-0.54,-9.29,-1.76,32.8
-1.58,-5.77,-6.73,32.79
-3.87,-7.32,-5.85,32.83
-2.64,-10.2,-2.39,32.78
-1.04,-12.31,-0.4,32.74
-1.96,-8.63,-2.23,32.78
-1.75,-5.15,-7.1,32.79
-4.92,-7.07,-5.96,32.78
-2.88,-10.23,-1.02,32.74
0.28,-11.75,-2.18,32.79
-1.98,-8.88,-1.79,32.76
-2.43,-4.9,-7.22,32.83
-2.62,-6.89,-5.83,32.78
-1.5,-11.34,-1.55,32.78
-0.82,-10.97,-0.71,32.77
-1.41,-9.28,-1.36,32.76
-1.03,-5.28,-7.29,32.77
-6.12,-6.92,-5.71,32.77
-2.6,-11.4,-0.36,32.82
-0.5,-5.91,-4.37,32.84
-2.76,-5.19,-5.78,32.82
-1.18,-10.08,-2.78,32.74
1.46,-13.41,-0.99,32.76
0.23,-10.3,-0.79,32.78
-0.29,-5.13,-5.31,32.78
-1.8,-5.24,-7.64,32.77
-1.58,-11.49,-1.79,32.77
-0.31,-12.73,-2.07,32.77
-0.84,-10.72,-2.35,32.82
-0.12,-5.28,-5.59,32.79
-4.37,-4.26,-7.42,32.77
-2.89,-10.19,-2.37,32.77
-0.66,-13.73,-1.42,32.76
0.31,-10.3,0.2,32.79
0.51,-6.3,-6.01,32.77
-3.55,-5.74,-6.35,32.76
-3.49,-10.91,-0.86,32.78
0.12,-12.84,-1.63,32.77
-0.32,-7.85,-4.5,32.79
-0.79,-5.76,-5.93,32.82
-3.89,-8.12,-1.53,32.79
0.26,-13.2,-0.38,32.79
0.76,-11.12,-1.84,32.81
0.65,-7.24,-3.23,32.85
2.25,-5.76,-7.52,32.82
-2.53,-8.56,-1.26,32.76
-1.41,-12.08,0.43,32.77
0.59,-13.82,-3.15,32.81
0.62,-8.34,-3.63,32.78
2.09,-5.75,-7.05,32.78
-3.43,-8.02,-3.63,32.79
-3.11,-11.88,-0.44,32.76
-0.41,-13.58,-2.99,32.79
0.82,-6.88,-4.86,32.81
-0.33,-4.96,-7.65,32.75
-4.45,-8.47,-2.02,32.81
-1.1,-13.24,-0.33,32.77
2.89,-10.23,-3.61,32.84
-0.99,-12.62,0.35,32.79
-2.03,-9.84,0.07,32.75
-0.99,-8.55,-6.4,32.77
-3.23,-7.9,-8.03,32.79
1.35,-9.99,-4.06,32.75
0.28,-12.02,0.02,32.76
-2.58,-10.33,-1.02,32.76
-0.98,-7.67,-7.93,32.77
-4.15,-7.07,-7.95,32.77
0.62,-10.0,-4.52,32.78
-0.06,-12.02,0.19,32.77
-3.64,-9.57,-1.57,32.78
-2.59,-6.88,-8.53,32.77
-4.51,-7.57,-5.84,32.79
0.24,-10.78,-3.72,32.71
0.48,-12.83,-1.49,32.79
-2.75,-9.4,-1.14,32.77
-1.95,-7.57,-8.29,32.78
-3.88,-7.54,-7.58,32.74
-0.61,-10.96,-3.38,32.74
1.7,-11.43,-1.26,32.77
-2.99,-9.46,-2.66,32.76
-3.71,-6.02,-8.57,32.81
-5.15,-7.62,-6.61,32.74
1.65,-10.73,-4.77,32.79
2.6,-10.89,-1.82,32.76
-0.62,-12.62,0.21,32.75
-1.47,-8.58,-5.46,32.74
-3.19,-7.65,-6.48,32.76
0.18,-9.66,-6.48,32.75
0.42,-11.26,-1.65,32.73
-0.88,-12.07,-1.2,32.73
-2.83,-7.18,-5.49,32.74
-4.24,-8.11,-8.76,32.75
-0.26,-9.49,-5.67,32.77
1.08,-12.29,-0.5,32.77
-1.11,-11.18,-1.96,32.79
-4.57,-7.99,-6.9,32.74
0.29,-8.71,-5.18,32.79
0.63,-8.55,-3.49,32.77
-2.56,-11.26,-0.82,32.75
-2.51,-11.17,-1.9,32.7
-2.8,-8.16,-7.25,32.78
-0.34,-7.8,-7.91,32.77
0.91,-9.48,-2.76,32.76
-0.03,-12.33,-0.18,32.76
-2.04,-10.91,-3.45,32.75
-3.98,-6.38,-7.56,32.77
0.52,-8.62,-6.95,32.74
0.18,-10.55,-3.03,32.78
-1.57,-11.35,0.15,32.76
-1.72,-12.2,-3.39,32.76
-4.33,-6.98,-7.78,32.77
-0.9,-8.35,-5.16,32.77
2.37,-12.11,-2.8,32.81
-0.23,-11.58,0.03,32.74
-1.44,-11.26,-2.44,32.75
-4.92,-7.23,-6.79,32.79
0.9,-8.62,-6.35,32.76
1.5,-10.82,-2.8,32.82
0.06,-11.64,-0.08,32.72
1.14,-11.03,-3.7,32.78
-4.05,-6.91,-5.83,32.77
-0.48,-8.29,-5.83,32.77
4.06,-10.07,-2.56,32.78
0.57,-10.69,-0.4,32.76
-2.12,-12.06,-2.66,32.74
-2.2,-8.13,-6.62,32.76
0.56,-8.09,-6.89,32.77
2.91,-9.89,-3.12,32.74
-0.07,-12.73,0.11,32.76
-3.27,-10.47,-2.66,32.76
-3.33,-8.0,-7.71,32.79
2.75,-8.46,-9.06,32.78
-0.33,-9.97,-2.77,32.74
-2.25,-11.97,-0.16,32.76
-1.69,-9.93,-3.81,32.78
-4.51,-7.43,-6.55,32.75
0.09,-8.83,-5.98,32.79
0.65,-11.36,-1.85,32.72
-2.03,-10.37,0.23,32.72
-2.94,-10.19,-4.26,32.77
-5.25,-7.1,-7.04,32.77
0.03,-9.39,-5.79,32.79
-0.61,-9.97,-1.71,32.76
-1.42,-11.6,0.05,32.77
-2.71,-9.73,-3.47,32.77
-3.93,-8.94,-6.32,32.82
1.49,-9.69,-6.85,32.75
2.47,-10.29,-2.14,32.77
-1.61,-11.07,-0.41,32.77
-3.06,-7.94,-6.2,32.78
-3.82,-7.18,-8.12,32.76
-0.86,-9.36,-5.59,32.77
0.47,-10.08,-1.02,32.8
-2.16,-10.79,-0.07,32.79
-3.65,-8.55,-4.58,32.74
-3.27,-6.81,-7.24,32.74
1.69,-9.93,-5.73,32.75
1.78,-9.98,-0.78,32.78
-2.38,-11.42,-0.37,32.72
-2.69,-9.35,-4.66,32.74
-3.76,-8.17,-5.91,32.78
2.92,-9.95,-7.08,32.71
1.08,-10.12,-0.53,32.78
-2.14,-12.66,0.71,32.72
-0.78,-8.15,-6.01,32.74
-3.38,-8.17,-7.59,32.77
-0.39,-8.05,-5.15,32.76
0.01,-10.62,-0.52,32.78
-3.34,-10.92,-1.09,32.78
-3.28,-7.95,-5.72,32.8
-2.7,-9.17,-6.15,32.74
-0.27,-8.82,-5.61,32.77
-2.0,-7.17,-3.77,32.73
-1.83,-6.47,-7.05,32.75
-4.47,-7.69,-4.19,32.73
0.63,-11.92,-2.25,32.74
-1.46,-9.93,-0.45,32.77
-3.37,-8.61,-2.03,32.71
-1.92,-5.74,-8.19,32.72
-4.16,-5.39,-9.18,32.73
-1.41,-11.58,-0.79,32.75
-1.49,-9.27,-0.17,32.76
-2.84,-9.32,-0.35,32.76
-2.95,-5.94,-7.13,32.77
-4.83,-5.81,-7.86,32.77
-2.05,-11.24,-2.83,32.8
-1.26,-11.21,1.95,32.72
-3.19,-9.12,-0.68,32.79
-3.52,-7.13,-5.16,32.78
-4.62,-7.52,-6.24,32.75
-2.74,-11.03,-3.45,32.76
-0.41,-6.78,-4.22,32.7
0.66,-5.14,-6.27,32.79
-3.54,-5.75,-7.0,32.69
-2.27,-11.43,0.11,32.73
1.76,-12.29,-2.83,32.73
-0.25,-9.14,-0.87,32.77
0.34,-5.57,-6.32,32.75
-1.7,-7.06,-5.56,32.72
-0.7,-12.74,-0.34,32.76
2.19,-13.74,-1.4,32.75
-1.02,-8.88,-2.03,32.74
0.35,-4.77,-7.32,32.73
-2.46,-7.68,-6.1,32.78
-2.71,-12.31,1.37,32.72
0.02,-12.58,-0.54,32.76
-0.05,-8.37,-2.85,32.74
0.79,-5.5,-8.02,32.71
-2.92,-7.44,-3.48,32.73
-0.39,-13.36,0.65,32.77
-2.6,-9.08,-4.82,32.74
-2.88,-8.64,-8.01,32.74
-0.77,-7.78,-6.16,32.77
1.01,-9.49,-5.02,32.74
-3.24,-11.53,0.21,32.79
-2.83,-10.47,-2.59,32.76
-2.19,-9.27,-6.62,32.74
-1.4,-6.89,-7.25,32.74
1.21,-8.53,-4.24,32.74
-1.52,-11.16,-0.77,32.72
-2.67,-10.64,-2.41,32.73
-3.8,-8.52,-6.15,32.74
0.14,-8.26,-8.44,32.72
0.82,-9.37,-4.06,32.75
-0.41,-11.37,-0.71,32.76
-1.85,-10.28,-2.44,32.8
-2.59,-8.46,-7.09,32.72
-0.23,-6.95,-7.11,32.75
2.71,-9.93,-4.28,32.73
-2.31,-8.28,-1.91,32.72
-0.85,-6.76,-5.08,32.79
-4.69,-5.91,-7.23,32.79
-3.57,-9.78,-0.86,32.7
2.08,-13.58,-2.29,32.75
-0.81,-9.02,-0.22,32.77
-1.48,-3.92,-6.17,32.75
-2.29,-4.94,-6.92,32.8
-1.57,-11.86,0.11,32.77
-0.28,-11.44,0.72,32.74
-0.17,-11.21,-1.3,32.76
1.1,-5.44,-5.8,32.73
-2.25,-6.68,-5.7,32.76
-2.65,-10.17,-0.51,32.71
1.43,-11.96,-0.68,32.73
-1.0,-9.51,-1.2,32.77
0.87,-5.83,-6.44,32.74
-2.55,-6.32,-5.47,32.74
-1.69,-10.92,-0.48,32.73
-3.16,-7.95,-6.48,32.74
-3.72,-8.09,-9.18,32.74
0.53,-10.11,-5.17,32.7
-1.15,-11.33,-0.69,32.72
-3.57,-10.32,-2.58,32.77
-2.06,-8.42,-6.96,32.79
-4.19,-8.48,-6.55,32.77
0.91,-10.27,-4.21,32.71
0.84,-11.36,-2.64,32.75
-2.86,-10.71,-1.24,32.73
-2.92,-8.09,-7.29,32.72
-4.13,-8.08,-6.76,32.77
0.11,-10.54,-4.18,32.72
-1.29,-11.41,-0.04,32.74
-0.85,-10.89,-2.64,32.71
-1.58,-6.42,-9.0,32.73
-4.43,-8.88,-6.63,32.75
2.09,-9.04,-5.58,32.7
0.66,-11.36,-0.93,32.72
-2.8,-9.57,-3.54,32.72
-1.69,-11.23,-3.28,32.69
0.37,-12.55,-0.31,32.74
-0.88,-10.5,-1.77,32.78
-2.79,-5.07,-7.19,32.74
-5.22,-8.27,-7.12,32.72
-1.5,-10.15,-3.38,32.68
-0.51,-13.28,-1.77,32.79
-2.3,-9.19,-2.22,32.74
-3.34,-5.4,-7.54,32.74
-3.13,-10.1,-5.56,32.79
-2.66,-12.02,-2.58,32.73
-0.04,-11.79,-2.39,32.72
0.32,-8.88,-4.41,32.76
-4.91,-4.84,-8.13,32.74
-5.32,-6.84,-7.61,32.72
-0.4,-11.83,-3.93,32.75
-0.46,-11.17,-0.53,32.71
-2.04,-8.77,-2.49,32.72
-4.53,-7.81,-6.03,32.75
-2.42,-9.74,-5.16,32.71
0.53,-12.25,-2.28,32.71
-2.19,-10.7,0.79,32.7
-2.25,-9.72,-4.92,32.73
-4.9,-5.16,-8.9,32.72
-3.1,-9.85,-4.02,32.74
1.49,-12.96,-2.01,32.75
-2.09,-10.32,0.22,32.74
-2.38,-8.32,-5.44,32.73
-3.57,-7.17,-8.43,32.69
-2.27,-11.38,-2.12,32.73
1.0,-11.48,-2.75,32.73
-0.42,-10.11,-0.93,32.75
-2.59,-5.14,-6.76,32.79
-4.88,-6.74,-7.46,32.71
-1.11,-11.83,-3.02,32.69
1.3,-11.41,-1.28,32.78
0.52,-11.29,1.52,32.68
-1.67,-6.77,-4.95,32.74
-4.85,-6.17,-7.49,32.74
-2.05,-10.56,-4.23,32.77
1.64,-12.6,-1.26,32.77
-1.88,-10.25,-0.39,32.71
-0.89,-6.21,-5.94,32.75
-1.74,-8.26,-7.68,32.75
-1.85,-10.83,-2.19,32.71
0.39,-12.8,-1.61,32.7
0.24,-9.78,-2.13,32.73
-2.67,-5.62,-6.54,32.7
-4.52,-7.63,-6.19,32.73
-2.85,-10.98,-1.99,32.76
-0.04,-12.0,-0.6,32.7
-2.1,-10.75,-1.07,32.7
-2.15,-6.39,-6.81,32.75
-4.09,-7.44,-5.64,32.73
-2.8,-10.38,-2.03,32.74
0.77,-12.6,-1.0,32.74
0.59,-9.2,-1.39,32.73
-2.88,-5.3,-7.14,32.7
-4.69,-6.29,-6.16,32.71
-1.1,-11.46,-1.98,32.7
-0.22,-11.87,-0.91,32.71
-1.81,-8.21,-1.71,32.74
-2.91,-5.81,-6.74,32.71
-3.78,-7.84,-6.8,32.78
-1.59,-12.59,-1.18,32.77
2.05,-12.3,-2.25,32.71
-1.67,-7.74,-2.57,32.77
-2.97,-4.95,-7.71,32.72
-3.68,-6.32,-8.13,32.73
-2.89,-11.46,-0.96,32.71
0.65,-12.7,-0.43,32.74
-2.0,-9.47,-2.04,32.75
-3.12,-4.74,-7.78,32.77
-3.32,-7.24,-6.06,32.73
-0.38,-12.09,-2.11,32.68
-0.5,-10.65,0.02,32.74
-1.15,-10.14,-2.05,32.77
-1.23,-3.78,-7.52,32.72
-4.31,-7.36,-5.46,32.69
-2.81,-11.62,-1.36,32.71
-0.15,-11.16,0.14,32.73
-0.33,-9.09,-2.41,32.72
-1.73,-4.59,-7.76,32.72
-4.8,-7.88,-3.05,32.72
-1.5,-12.12,-1.63,32.73
2.05,-12.21,-1.48,32.75
-1.14,-7.86,-2.96,32.74
-1.9,-5.42,-6.6,32.73
-3.16,-8.81,-3.83,32.71
-0.48,-11.33,-1.61,32.74
0.13,-11.6,-1.64,32.76
-1.62,-7.09,-3.53,32.7
-1.8,-5.13,-7.04,32.73
-3.65,-6.6,-6.8,32.75
-1.5,-12.08,-0.91,32.76
0.27,-5.78,-4.24,32.72
0.33,-11.39,-0.66,32.7
-1.52,-11.56,2.07,32.72
-0.88,-11.26,-2.8,32.71
0.45,-8.0,-6.75,32.73
2.27,-8.25,-4.67,32.72
1.92,-9.41,-2.6,32.73
-0.6,-11.41,1.81,32.71
-1.41,-11.01,-3.11,32.72
-0.12,-9.26,-5.12,32.74
1.11,-6.75,-6.07,32.7
1.92,-8.42,-3.2,32.73
-1.64,-12.11,-0.05,32.74
-3.07,-10.4,-1.07,32.72
-0.52,-10.68,-5.99,32.72
1.47,-6.9,-6.2,32.69
0.06,-9.35,-2.99,32.74
-0.56,-11.85,-0.93,32.72
-0.18,-10.42,-3.59,32.71
-0.33,-10.15,-0.57,32.73
-2.42,-8.08,-1.68,32.7
-1.7,-5.92,-8.13,32.68
-3.95,-7.65,-4.11,32.73
1.2,-11.49,-3.14,32.69
-0.01,-11.57,-0.22,32.67
-3.51,-7.74,-2.53,32.72
-3.04,-5.37,-8.63,32.7
-2.64,-8.65,-5.51,32.68
-0.46,-11.34,-2.8,32.69
-1.76,-11.42,0.79,32.7
-1.26,-7.8,-4.73,32.75
-3.22,-6.75,-6.98,32.74
-3.57,-8.44,-3.72,32.74
0.93,-11.84,-2.4,32.68
-1.86,-11.32,-0.43,32.73
-3.27,-7.62,-2.77,32.72
-2.32,-6.78,-8.14,32.69
-4.19,-8.28,-4.21,32.72
-2.36,-10.67,-0.51,32.71
-3.16,-10.05,-0.85,32.7
-2.75,-7.25,-6.4,32.69
-3.0,-8.31,-7.35,32.69
-0.82,-11.65,-3.46,32.72
-0.88,-10.96,-0.88,32.7
-2.09,-9.07,-2.51,32.74
-2.52,-6.1,-6.86,32.71
-2.9,-9.07,-5.85,32.72
-0.63,-11.34,-2.79,32.69
-1.07,-12.51,0.34,32.72
-1.68,-8.91,-2.93,32.71
-2.24,-4.92,-7.75,32.69
-4.85,-7.71,-6.87,32.66
-2.95,-10.91,-1.37,32.67
-0.03,-12.41,-1.09,32.72
-0.42,-9.65,-1.69,32.69
-1.75,-5.54,-7.83,32.69
-5.69,-6.68,-5.3,32.73
0.19,-6.79,-2.22,32.72
-2.65,-12.73,0.11,32.72
-0.48,-12.94,-2.15,32.73
0.66,-8.25,-6.36,32.7
-0.69,-5.93,-6.74,32.71
-1.06,-7.71,-3.12,32.72
-2.03,-11.96,-0.22,32.69
-0.64,-12.38,-1.45,32.66
0.24,-8.7,-6.15,32.66
1.6,-7.49,-4.6,32.72
0.75,-7.43,-3.57,32.69
-1.8,-11.5,-0.15,32.71
-0.37,-13.13,-0.42,32.67
-2.1,-10.18,-3.3,32.73
0.63,-6.56,-7.81,32.71
0.16,-7.46,-4.08,32.68
-1.77,-11.9,1.39,32.7
-1.62,-12.37,-1.53,32.74
-1.48,-11.11,-5.5,32.72
-0.32,-5.0,-5.88,32.68
-3.3,-7.06,-5.49,32.7
-1.03,-12.08,-0.28,32.7
-0.06,-12.27,-2.06,32.67
-2.13,-7.3,-4.45,32.71
-2.47,-4.85,-7.77,32.69
-4.08,-7.45,-3.56,32.68
-1.76,-12.36,-0.29,32.69
-0.85,-11.73,-2.3,32.65
-1.39,-6.91,-2.99,32.69
-0.54,-5.22,-7.18,32.64
-3.17,-7.93,-4.31,32.69
-1.6,-12.26,0.1,32.67
0.82,-11.57,-2.62,32.67
-1.81,-7.8,-3.31,32.69
-1.29,-4.21,-7.15,32.69
-2.46,-7.97,-2.56,32.67
-1.19,-11.67,0.38,32.71
-0.31,-10.3,-2.67,32.66
-0.75,-8.04,-3.48,32.68
0.57,-5.4,-6.0,32.7
-3.05,-7.51,-1.94,32.67
-1.98,-11.23,1.86,32.69
-1.15,-12.16,-0.97,32.68
0.17,-6.68,-4.77,32.69
2.22,-6.08,-5.79,32.65
-0.72,-8.3,-2.6,32.68
0.62,-11.41,0.79,32.66
0.13,-11.6,-1.88,32.7
0.8,-6.47,-3.17,32.71
1.59,-7.08,-5.54,32.67
-1.22,-6.85,-1.19,32.67
0.71,-13.03,0.34,32.66
-0.59,-12.88,0.21,32.67
-1.19,-7.03,-4.62,32.71
1.17,-5.99,-6.15,32.69
-0.58,-8.31,-0.76,32.67
-1.22,-13.19,0.41,32.73
-0.59,-10.22,-2.17,32.67
0.58,-7.48,-4.57,32.69
0.9,-5.57,-5.49,32.7
0.05,-8.55,-1.21,32.67
1.0,-13.65,0.52,32.68
-0.53,-10.87,-0.63,32.66
-0.52,-8.66,-4.66,32.68
1.26,-5.92,-5.07,32.71
0.65,-9.7,-2.34,32.72
-0.36,-12.66,0.7,32.67
-1.04,-10.89,-2.87,32.64
-0.36,-7.38,-5.9,32.68
-1.03,-12.52,-0.97,32.63
-2.33,-12.01,-3.01,32.65
0.55,-8.54,-5.66,32.7
2.34,-7.01,-5.8,32.65
-0.67,-9.72,-1.04,32.69
-0.82,-12.81,1.94,32.68
1.0,-11.69,-3.47,32.67
0.84,-8.35,-5.56,32.65
0.73,-7.28,-4.9,32.69
0.6,-9.66,-2.18,32.67
-1.95,-12.06,1.64,32.65
-0.16,-10.59,-3.3,32.69
0.76,-8.59,-6.19,32.69
-0.14,-7.06,-3.94,32.69
0.72,-10.35,-1.55,32.68
0.5,-13.79,0.02,32.66
-1.87,-10.58,-3.25,32.69
-0.29,-8.78,-6.25,32.68
2.28,-7.19,-5.41,32.69
0.47,-10.25,-0.24,32.69
-0.97,-12.52,0.74,32.64
0.31,-10.82,-5.2,32.65
-0.69,-7.53,-7.08,32.7
0.21,-6.68,-5.15,32.69
0.53,-9.89,-1.95,32.69
-0.93,-12.26,0.4,32.68
-2.02,-9.8,-2.86,32.67
-0.78,-8.59,-7.45,32.66
2.72,-8.09,-5.42,32.68
-0.78,-9.34,0.06,32.7
-1.49,-12.0,0.25,32.66
-1.4,-10.2,-3.71,32.67
-1.68,-8.42,-5.94,32.7
1.88,-8.82,-5.79,32.67
0.66,-10.76,-0.6,32.68
-0.79,-12.44,1.02,32.66
-0.49,-10.64,-5.64,32.67
-2.64,-8.33,-7.2,32.71
-3.67,-7.93,-6.84,32.64
0.79,-7.63,-6.21,32.67
-0.04,-13.43,-0.26,32.65
-2.04,-10.98,0.02,32.65
-0.88,-10.32,-5.28,32.63
-2.39,-7.79,-8.58,32.67
-0.74,-9.15,-4.07,32.67
0.19,-11.39,-1.75,32.68
-0.21,-11.79,-1.44,32.62
-1.76,-9.86,-5.28,32.64
-4.22,-6.37,-8.66,32.65
0.43,-9.32,-4.14,32.65
1.99,-12.62,-1.39,32.65
-1.66,-10.56,-0.54,32.67
-1.64,-9.0,-5.67,32.71
-1.31,-8.1,-8.0,32.67
-0.05,-9.3,-3.83,32.67
-0.49,-10.18,-0.78,32.64
-0.29,-11.34,-0.84,32.68
-1.75,-9.25,-5.31,32.66
-0.68,-10.33,-5.08,32.67
0.53,-8.55,-2.63,32.69
-1.33,-11.32,0.16,32.69
-1.27,-11.73,-2.97,32.65
-2.61,-7.6,-7.08,32.69
-1.19,-9.18,-5.54,32.68
1.71,-10.54,-4.06,32.69
-1.08,-10.52,0.38,32.68
-1.57,-11.62,-2.3,32.67
-1.49,-7.52,-8.01,32.66
-2.39,-7.56,-6.37,32.67
-0.25,-10.25,-2.22,32.69
-0.09,-11.34,0.91,32.66
-0.61,-10.82,-2.89,32.63
-1.4,-6.85,-6.99,32.65
-1.93,-9.05,-6.29,32.64
0.67,-9.62,-3.19,32.67
-0.75,-11.84,-0.58,32.61
-2.5,-11.22,-1.87,32.67
-2.95,-7.92,-7.59,32.67
-3.53,-6.85,-6.64,32.69
0.16,-9.36,-3.29,32.65
-1.05,-12.91,0.11,32.63
-1.89,-10.59,-1.64,32.67
-0.98,-6.83,-9.49,32.67
-4.55,-7.06,-5.59,32.64
-0.94,-11.98,-3.34,32.67
-0.16,-11.42,0.19,32.67
-1.42,-11.04,-3.07,32.66
-1.98,-6.2,-6.65,32.61
-4.38,-8.33,-5.15,32.65
2.25,-11.32,-3.85,32.68
0.59,-10.6,-0.3,32.67
-2.67,-9.32,-2.32,32.69
-2.14,-7.75,-7.75,32.63
-4.47,-5.78,-5.39,32.67
0.2,-11.28,-3.77,32.67
-0.72,-11.45,-0.49,32.64
-1.19,-11.45,0.45,32.69
-1.76,-13.17,0.75,32.61
-0.75,-11.43,-3.39,32.61
-0.57,-7.27,-5.48,32.61
1.82,-7.51,-5.63,32.69
-0.75,-9.33,-1.29,32.67
-0.34,-13.93,1.23,32.62
-1.28,-10.35,-4.91,32.67
-0.24,-7.05,-5.78,32.66
2.31,-7.65,-4.84,32.65
0.5,-10.7,-0.96,32.67
-0.44,-12.98,-0.18,32.64
-1.04,-9.11,-5.44,32.65
0.61,-6.8,-6.04,32.66
1.25,-8.31,-5.13,32.64
0.51,-10.64,-0.84,32.69
-0.06,-12.7,0.44,32.66
0.55,-10.43,-5.99,32.64
-1.59,-7.6,-6.21,32.61
-1.75,-10.59,-1.82,32.69
-0.49,-12.65,-0.87,32.7
-1.41,-9.81,-1.65,32.66
0.64,-6.52,-4.58,32.64
-0.65,-5.25,-6.15,32.66
-3.03,-9.59,0.32,32.68
0.22,-11.77,-0.47,32.64
1.7,-10.34,-2.1,32.65
0.98,-6.56,-5.09,32.63
-0.55,-6.1,-4.71,32.69
-2.52,-9.59,-1.8,32.68
-1.59,-11.71,-0.21,32.65
-0.81,-9.95,-2.08,32.64
0.06,-7.23,-5.28,32.66
0.91,-6.01,-7.18,32.69
-3.27,-7.58,-4.56,32.67
-0.13,-12.59,0.46,32.62
0.82,-12.22,0.02,32.67
-1.87,-8.37,-2.09,32.65
-0.44,-11.7,0.82,32.66
0.21,-11.98,-0.58,32.68
-0.12,-9.73,-3.79,32.63
-0.64,-6.23,-4.15,32.64
0.71,-8.0,-5.49,32.64
-1.22,-10.41,-1.91,32.65
1.31,-12.88,-0.5,32.65
-0.32,-10.11,-3.95,32.67
-1.39,-5.81,-5.76,32.62
0.43,-7.19,-6.96,32.64
-0.91,-10.88,-1.89,32.65
0.29,-13.08,0.47,32.63
-0.5,-11.71,-3.8,32.64
-0.6,-6.97,-5.49,32.64
-0.18,-8.18,-5.72,32.66
-0.23,-10.61,-0.38,32.66
-0.48,-12.97,-2.61,32.67
-2.93,-10.49,-4.04,32.66
0.15,-6.77,-6.83,32.65
-2.63,-7.94,-9.01,32.66
-5.23,-7.35,-5.39,32.68
1.82,-10.59,-4.13,32.67
-0.5,-11.39,-1.33,32.64
-5.46,-8.81,-2.2,32.67
-3.07,-7.21,-9.56,32.66
-3.37,-7.67,-5.42,32.65
-1.8,-10.4,-3.96,32.67
-1.57,-11.19,-0.71,32.63
-2.56,-11.39,-3.4,32.68
-2.5,-6.43,-7.86,32.65
-3.38,-8.34,-5.96,32.64
-0.27,-10.6,-4.38,32.62
-1.01,-11.53,-0.63,32.66
-2.07,-10.25,-3.33,32.63
-2.72,-6.86,-8.42,32.66
-3.88,-7.74,-6.3,32.64
-1.13,-11.5,-3.87,32.69
-1.39,-11.01,-0.99,32.65
-1.24,-12.02,0.27,32.67
0.31,-11.95,-0.31,32.68
-0.88,-7.76,-3.46,32.64
-2.36,-4.29,-5.74,32.64
-3.8,-5.89,-4.43,32.66
-2.66,-11.27,-0.91,32.66
-2.25,-10.34,-0.69,32.64
-2.87,-6.72,-4.45,32.69
-1.03,-5.86,-7.07,32.62
-4.19,-8.61,-3.68,32.65
-0.6,-12.07,-1.07,32.64
-2.35,-11.97,-2.19,32.64
-3.44,-6.74,-2.09,32.64
-1.3,-5.72,-8.31,32.71
-3.82,-8.72,-3.58,32.68
-2.37,-11.93,0.67,32.64
-2.02,-10.8,-2.77,32.68
-3.02,-6.65,-3.33,32.69
-2.63,-5.39,-5.36,32.69
-3.78,-8.26,-2.09,32.65
0.02,-13.29,-1.03,32.72
-2.4,-9.48,-1.9,32.66
-2.73,-6.93,-3.48,32.67
-0.38,-5.93,-7.77,32.66
-3.59,-8.1,-2.34,32.62
-0.67,-12.43,0.07,32.67
-0.85,-12.08,-2.02,32.66
-1.73,-6.08,-4.49,32.59
-1.54,-5.49,-7.58,32.64
-3.2,-7.85,-3.31,32.67
-2.12,-11.72,0.25,32.64
-1.4,-10.81,-2.52,32.68
-0.82,-7.56,-5.21,32.7
0.53,-5.28,-5.93,32.68
-0.91,-8.09,-2.89,32.65
-1.53,-12.37,0.18,32.63
-2.95,-11.76,-1.36,32.69
-1.23,-7.42,-5.5,32.67
-1.41,-11.2,-1.43,32.68
-2.38,-10.9,-1.12,32.66
-2.82,-6.37,-4.9,32.67
-1.51,-5.14,-6.68,32.64
-3.4,-9.08,-2.67,32.64
-1.17,-12.38,0.18,32.68
-1.57,-10.61,-2.14,32.67
-0.05,-6.84,-5.61,32.65
1.23,-5.02,-8.19,32.64
-2.17,-9.0,-2.68,32.66
0.83,-13.24,-0.4,32.65
0.55,-11.94,-2.61,32.64
-0.32,-6.26,-5.79,32.63
-0.45,-5.67,-6.59,32.65
-2.09,-9.47,-1.55,32.67
0.61,-13.62,-0.52,32.64
-0.29,-10.18,-2.17,32.63
-1.03,-6.99,-5.04,32.65
1.48,-6.53,-5.53,32.65
-0.49,-11.0,0.04,32.62
-3.37,-10.55,-1.97,32.64
-1.12,-6.9,-7.5,32.64
-3.27,-8.06,-4.3,32.62
0.53,-9.38,-2.02,32.64
0.71,-12.27,-0.49,32.67
-1.47,-8.87,-2.11,32.61
-3.5,-7.51,-5.6,32.6
-3.37,-7.23,-5.52,32.64
1.65,-9.89,-3.08,32.6
1.15,-13.09,1.04,32.57
-1.14,-9.98,-1.41,32.62
-1.88,-7.07,-6.01,32.62
-3.06,-9.38,-6.11,32.65
0.37,-10.07,-2.21,32.63
0.93,-10.8,-0.95,32.65
-2.2,-9.56,-1.6,32.58
-3.09,-7.29,-6.05,32.64
-3.79,-7.71,-5.19,32.65
-0.55,-9.28,-4.06,32.63
-2.06,-11.37,0.49,32.62
-0.74,-12.34,-1.04,32.62
-0.16,-10.56,-3.71,32.63
0.34,-5.98,-6.45,32.63
-0.28,-6.83,-4.57,32.63
-0.09,-12.11,0.36,32.62
-1.47,-12.16,-1.28,32.61
-0.09,-8.66,-4.13,32.64
1.57,-6.45,-6.0,32.64
0.79,-7.05,-3.92,32.62
-1.22,-11.26,-0.19,32.63
1.55,-13.03,-0.25,32.64
-0.3,-10.0,-3.62,32.61
-0.29,-5.21,-5.74,32.64
1.16,-7.68,-4.2,32.63
-0.56,-10.8,2.15,32.6
0.07,-14.09,-0.12,32.64
-0.47,-9.74,-4.37,32.62
0.87,-5.85,-6.06,32.61
0.15,-12.92,1.18,32.58
-1.09,-13.69,0.54,32.57
1.18,-11.32,-0.64,32.63
1.88,-6.1,-8.02,32.61
-1.28,-6.88,-3.15,32.62
-2.6,-9.37,-1.64,32.62
0.63,-13.85,-0.57,32.62
-0.37,-10.01,-3.02,32.63
-2.87,-6.3,-3.89,32.64
0.74,-6.52,-5.99,32.64
-2.29,-10.1,-0.51,32.61
-1.09,-12.48,0.4,32.58
0.92,-11.48,-2.75,32.62
-0.12,-5.84,-6.72,32.63
2.22,-6.22,-6.03,32.61
-0.6,-11.15,-1.08,32.62
0.84,-14.06,1.28,32.64
0.49,-11.36,-2.7,32.64
0.92,-7.6,-5.67,32.63
0.19,-11.08,-3.99,32.6
-0.64,-11.3,0.45,32.62
-3.03,-8.37,-1.66,32.59
-2.66,-6.49,-8.53,32.6
-4.2,-8.06,-7.52,32.61
0.95,-11.24,-3.13,32.61
0.68,-12.11,-0.36,32.61
-1.34,-9.23,-2.34,32.61
-1.69,-5.78,-9.15,32.62
-0.67,-8.93,-6.91,32.63
2.39,-12.23,-3.16,32.6
-2.19,-11.14,0.86,32.66
-2.03,-8.23,-4.2,32.59
-2.85,-6.4,-9.31,32.62
-4.38,-8.04,-6.23,32.62
-0.1,-11.48,-2.32,32.59
-1.9,-11.53,-0.79,32.64
-3.69,-8.2,-2.24,32.62
-2.64,-4.92,-9.1,32.57
-1.71,-12.84,-1.23,32.59
1.29,-12.48,-2.37,32.59
-1.86,-8.42,-2.69,32.58
-2.83,-5.7,-5.63,32.59
-4.84,-5.82,-8.13,32.57
-2.08,-10.84,-1.73,32.61
0.4,-13.67,-1.24,32.63
-1.79,-9.64,-1.6,32.6
-2.47,-5.13,-5.88,32.59
-4.0,-6.17,-6.43,32.61
-1.78,-11.33,-1.94,32.57
-0.14,-11.8,-1.59,32.58
-1.19,-9.34,-2.44,32.57
-1.63,-5.73,-5.4,32.55
-3.59,-5.89,-5.53,32.61
-1.53,-11.48,-0.89,32.6
1.38,-13.12,-1.67,32.58
1.42,-9.61,-1.84,32.59
0.9,-6.34,-4.91,32.62
-1.76,-12.26,-0.29,32.59
-0.08,-8.4,-4.99,32.56
-0.71,-7.5,-6.31,32.58
-0.82,-7.25,-2.71,32.6
0.32,-12.69,0.68,32.58
-0.31,-12.15,-1.17,32.58
-2.05,-8.71,-5.6,32.58
-1.47,-7.55,-6.74,32.6
0.62,-9.23,-3.99,32.57
-1.36,-11.41,0.43,32.62
-1.43,-11.32,-1.62,32.55
-1.82,-9.1,-7.11,32.57
-1.19,-7.54,-6.55,32.58
1.38,-8.56,-3.7,32.57
-1.09,-11.63,-0.19,32.57
-2.89,-10.77,-1.37,32.56
-2.55,-7.28,-7.45,32.57
-1.79,-7.63,-7.61,32.61
-0.28,-8.68,-3.35,32.59
1.81,-9.19,-2.38,32.57
1.05,-6.86,-4.3,32.59
-0.43,-3.41,-5.1,32.6
-1.73,-12.59,2.06,32.62
-0.68,-11.57,1.54,32.58
0.35,-10.53,-2.08,32.58
-0.85,-7.2,-2.89,32.59
0.15,-4.6,-7.25,32.56
-1.76,-9.72,-1.85,32.58
-0.94,-11.85,0.6,32.58
0.5,-11.85,-1.47,32.57
1.08,-5.98,-5.12,32.55
0.35,-6.41,-5.75,32.55
-1.52,-8.35,-1.14,32.61
-0.17,-11.78,-0.83,32.61
-0.54,-11.14,-1.32,32.57
-0.6,-6.29,-3.71,32.61
0.06,-5.13,-5.51,32.59
-1.99,-9.03,-1.99,32.59
-1.01,-12.14,0.25,32.62
-1.24,-10.13,-0.77,32.54
-0.02,-6.65,-5.77,32.57
-0.28,-6.17,-4.94,32.57
-3.37,-10.06,0.26,32.59
-0.16,-12.98,0.46,32.6
-0.67,-11.55,-1.24,32.54
-1.39,-5.95,-5.0,32.58
0.74,-7.15,-5.54,32.61
-1.32,-9.66,-1.0,32.56
-0.44,-12.46,0.23,32.56
-0.07,-10.33,-3.36,32.57
-0.85,-6.07,-4.47,32.57
1.28,-5.62,-5.61,32.57
-1.63,-8.98,-0.68,32.56
-1.88,-12.8,0.5,32.55
0.19,-11.24,-3.32,32.56
1.61,-5.85,-5.98,32.54
0.74,-5.95,-4.75,32.58
-2.34,-10.7,0.22,32.57
-1.52,-12.96,-1.02,32.62
0.19,-12.66,-1.75,32.6
-1.79,-9.86,-0.18,32.6
-2.06,-6.3,-6.03,32.63
-2.69,-5.63,-7.61,32.6
-3.41,-10.73,-2.96,32.57
1.24,-12.37,-1.15,32.56
-2.87,-9.46,-0.41,32.56
-3.84,-5.09,-5.41,32.54
-2.89,-5.96,-8.2,32.58
-2.7,-9.39,-1.97,32.55
-0.06,-11.99,0.68,32.59
-2.09,-9.22,-0.27,32.57
-1.55,-5.64,-6.43,32.57
-3.49,-6.03,-7.51,32.56
-3.06,-8.88,-1.92,32.56
1.1,-12.17,-1.63,32.55
-3.15,-8.61,-1.13,32.5
-2.47,-6.56,-4.74,32.55
-0.19,-13.98,0.14,32.58
-0.09,-10.42,-4.41,32.57
1.06,-7.41,-6.68,32.61
2.04,-7.17,-4.29,32.56
0.41,-10.37,-0.44,32.54
-0.62,-13.45,0.12,32.53
-0.85,-10.3,-2.49,32.56
0.5,-7.19,-7.02,32.54
1.92,-7.46,-3.87,32.55
1.76,-11.59,0.29,32.55
0.64,-13.44,0.93,32.57
-1.61,-9.1,-4.05,32.55
2.06,-7.18,-6.55,32.59
1.76,-7.82,-4.18,32.56
0.46,-11.26,0.57,32.55
0.13,-13.02,1.51,32.57
-1.31,-9.34,-3.41,32.56
1.91,-7.68,-6.02,32.56
1.96,-7.71,-3.86,32.53
2.53,-12.61,0.34,32.55
-0.36,-12.69,0.21,32.54
-3.04,-8.33,-4.17,32.54
1.44,-8.77,-6.9,32.6
1.91,-9.77,-3.95,32.54
1.24,-12.09,0.14,32.58
-0.87,-12.55,-0.98,32.55
-1.08,-8.32,-6.32,32.57
-0.96,-8.04,-6.95,32.55
0.97,-9.34,-2.94,32.54
1.07,-12.44,-1.23,32.58
-1.11,-11.29,-2.04,32.54
-2.7,-8.63,-5.78,32.54
0.23,-8.58,-6.43,32.59
1.65,-8.06,-3.53,32.54
-0.84,-11.81,0.27,32.54
-1.91,-11.47,-1.33,32.52
-0.4,-8.67,-7.67,32.56
-1.51,-8.12,-6.1,32.54
-0.78,-11.18,-0.87,32.52
-0.09,-8.71,-2.81,32.55
0.06,-5.57,-6.21,32.51
-1.36,-6.28,-3.45,32.55
-0.41,-12.29,0.18,32.57
-0.99,-12.38,-0.11,32.55
-0.63,-8.61,-2.52,32.55
2.16,-5.49,-5.44,32.56
-0.02,-6.47,-4.09,32.52
-1.74,-11.89,0.58,32.53
0.92,-12.62,-1.5,32.55
-0.22,-8.15,-4.45,32.55
1.56,-5.58,-6.16,32.61
-0.53,-7.42,-3.76,32.58
-0.49,-11.52,-0.62,32.59
-0.15,-12.5,-0.64,32.54
0.26,-8.44,-4.88,32.56
0.33,-6.37,-6.01,32.54
-0.17,-8.04,-3.66,32.56
-0.04,-11.58,-0.32,32.56
-1.98,-12.07,-2.12,32.55
-1.45,-9.09,-4.65,32.59
1.1,-5.99,-6.68,32.53
-1.18,-7.51,-3.93,32.57
-3.51,-11.35,1.41,32.55
-1.83,-11.83,-2.75,32.54
-1.25,-7.29,-4.21,32.56
0.2,-5.5,-7.41,32.52
-1.47,-8.94,-3.09,32.55
-2.06,-11.61,1.38,32.54
-1.66,-11.53,-3.01,32.51
-1.8,-7.21,-4.61,32.53
0.21,-6.79,-5.12,32.54
0.2,-8.87,-2.92,32.57
-1.59,-10.83,0.68,32.56
-0.33,-11.8,-3.08,32.51
-0.61,-8.09,-5.25,32.53
0.56,-5.81,-5.6,32.51
0.98,-8.89,-2.56,32.53
-0.88,-11.91,0.79,32.52
-0.58,-12.06,-2.83,32.57
-0.44,-7.97,-4.45,32.54
1.88,-5.76,-5.66,32.53
0.51,-9.22,-2.07,32.56
-2.43,-12.44,1.98,32.59
0.63,-12.42,-2.66,32.54
0.05,-7.95,-5.74,32.55
-0.62,-5.32,-5.0,32.56
-0.6,-9.03,-2.33,32.53
-0.62,-11.84,-0.15,32.57
-0.76,-11.64,-2.23,32.53
-1.25,-8.21,-4.47,32.56
2.3,-6.98,-5.46,32.55
1.12,-9.93,-2.21,32.57
-1.64,-11.66,1.71,32.54
-0.12,-12.55,-2.8,32.54
-0.92,-8.88,-6.61,32.54
0.36,-6.6,-5.47,32.58
0.77,-10.06,-2.24,32.55
-1.27,-11.99,1.63,32.57
-1.36,-11.34,-1.75,32.55
-1.01,-7.87,-7.31,32.54
0.29,-5.9,-5.82,32.56
0.58,-9.11,-3.28,32.53
-0.92,-12.74,1.21,32.56
-1.93,-11.96,-3.05,32.54
-0.8,-7.57,-7.58,32.57
0.6,-6.97,-7.05,32.52
1.53,-9.33,-1.4,32.56
-0.28,-12.43,0.13,32.54
-1.34,-10.47,-3.12,32.6
-2.21,-8.03,-5.97,32.55
1.46,-9.13,-5.86,32.54
1.64,-9.95,-1.83,32.52
-0.43,-12.1,0.89,32.53
-0.83,-10.51,-1.77,32.52
-1.93,-8.36,-7.77,32.55
0.87,-7.98,-3.97,32.54
-0.7,-10.8,-0.53,32.52
-1.09,-12.21,-0.72,32.52
-1.78,-8.74,-4.29,32.51
0.87,-7.81,-6.01,32.53
2.16,-8.39,-3.02,32.54
0.74,-10.78,-0.1,32.52
0.41,-12.17,-1.64,32.5
-0.37,-8.89,-5.62,32.49
-1.78,-7.77,-5.91,32.55
-0.15,-7.76,-4.35,32.53
-0.07,-11.72,-0.28,32.5
-1.37,-11.8,-0.08,32.55
-1.98,-8.32,-6.41,32.58
-1.66,-7.47,-6.19,32.52
0.45,-9.22,-2.64,32.56
1.19,-12.27,0.79,32.55
-1.36,-11.04,-1.24,32.52
-1.74,-10.11,-2.83,32.49
-1.02,-10.63,-1.27,32.5
-2.25,-9.66,-1.34,32.52
-1.46,-7.23,-7.8,32.54
-3.73,-6.67,-6.11,32.53
-0.28,-11.42,-3.99,32.53
1.47,-11.49,-0.65,32.52
-1.38,-10.43,-1.81,32.5
-2.2,-7.41,-7.07,32.53
-3.8,-7.75,-5.36,32.59
-0.96,-10.72,-2.55,32.53
0.88,-12.77,-1.3,32.54
-0.39,-10.85,-2.29,32.58
-3.04,-7.12,-6.86,32.52
-3.65,-7.61,-6.2,32.55
-0.45,-11.35,-2.21,32.53
0.26,-11.51,-0.78,32.51
-2.67,-9.91,-2.34,32.52
-3.79,-5.96,-7.2,32.54
-2.81,-7.42,-6.41,32.55
-1.77,-12.08,0.87,32.54
-0.54,-11.95,-0.41,32.52
-0.6,-9.78,-1.36,32.53
-0.14,-6.82,-4.44,32.52
-0.4,-4.49,-6.5,32.56
-2.92,-9.27,-1.8,32.53
0.21,-13.64,-1.03,32.51
0.69,-10.71,-3.12,32.54
-2.74,-5.76,-4.97,32.54
-0.04,-7.23,-6.25,32.5
-0.85,-11.82,-1.35,32.52
0.2,-11.56,-0.21,32.52
0.46,-11.1,-2.31,32.53
-1.34,-6.17,-4.91,32.52
0.57,-5.54,-5.76,32.52
-0.26,-10.16,-0.78,32.52
0.56,-12.72,0.35,32.54
-0.56,-11.08,-2.65,32.52
-0.4,-5.66,-5.25,32.52
2.77,-6.17,-5.85,32.49
-0.91,-11.11,0.84,32.55
-0.15,-11.49,-0.19,32.52
0.54,-11.38,-3.15,32.53
1.43,-6.24,-4.45,32.5
1.4,-6.27,-4.46,32.52
-1.16,-10.1,1.87,32.54
0.56,-13.2,0.46,32.54
-0.78,-10.29,-2.8,32.5
1.56,-6.33,-5.73,32.53
2.26,-7.69,-4.29,32.5
-0.31,-10.04,0.63,32.55
0.27,-13.68,0.11,32.54
-0.31,-10.28,-2.91,32.51
1.33,-6.72,-5.01,32.52
2.19,-6.37,-4.97,32.56
0.16,-10.8,0.36,32.53
-1.51,-12.78,1.12,32.55
-0.3,-9.79,-3.72,32.53
1.0,-7.14,-5.71,32.5
-1.49,-5.43,-7.77,32.53
-4.13,-7.14,-3.34,32.49
-2.19,-11.31,-0.08,32.54
-0.49,-11.4,-1.49,32.52
-2.46,-6.83,-3.36,32.47
-0.06,-5.08,-7.14,32.49
-2.79,-7.58,-4.87,32.51
-1.37,-12.16,1.16,32.51
1.52,-11.64,-2.15,32.47
-1.27,-7.89,-3.75,32.51
-0.91,-5.29,-6.31,32.51
-2.18,-8.97,-3.72,32.53
-0.34,-13.12,-0.64,32.52
0.09,-11.07,-1.67,32.56
-0.42,-8.19,-3.95,32.53
-0.08,-5.26,-6.78,32.49
-1.81,-8.04,-2.97,32.52
-1.47,-12.45,-0.32,32.53
0.29,-11.48,-0.74,32.52
-2.13,-8.51,-3.9,32.53
-0.4,-5.12,-6.11,32.5
-1.81,-8.99,-3.52,32.53
-1.51,-12.0,-0.19,32.49
-1.1,-11.08,-0.66,32.49
-0.58,-8.23,-3.85,32.48
0.15,-6.06,-5.54,32.5
-3.41,-8.15,-1.51,32.49
0.65,-13.44,-0.58,32.52
1.29,-12.0,-1.48,32.53
-1.41,-7.12,-3.71,32.54
0.53,-5.07,-6.94,32.54
-0.13,-8.1,-2.77,32.51
-1.44,-12.88,0.48,32.55
-0.81,-11.4,-2.09,32.56
-0.85,-6.81,-3.96,32.54
0.81,-6.5,-3.92,32.49
-2.07,-5.84,-5.68,32.55
-2.53,-11.24,-0.24,32.49
-0.24,-10.61,-0.45,32.5
-0.61,-12.36,-1.38,32.5
-3.74,-8.76,-4.74,32.47
-2.6,-6.39,-8.81,32.53
-2.21,-8.28,-6.18,32.54
-0.9,-12.32,-0.68,32.52
-1.8,-13.18,-0.5,32.54
-2.29,-9.37,-3.2,32.49
-1.84,-8.27,-9.63,32.51
-3.67,-8.2,-5.31,32.51
-1.15,-10.87,-3.58,32.5
0.56,-12.52,-1.34,32.49
-3.73,-10.59,-3.16,32.49
-2.03,-6.32,-9.51,32.49
-1.38,-9.03,-8.3,32.53
0.34,-10.26,-2.62,32.51
-1.21,-11.81,-0.44,32.49
-1.88,-9.62,-4.41,32.47
-2.74,-5.33,-8.71,32.53
-0.77,-13.32,0.28,32.53
-1.57,-9.61,0.23,32.55
2.37,-7.09,-5.23,32.51
-0.95,-6.02,-4.95,32.55
-2.41,-11.33,1.21,32.53
1.51,-13.64,0.24,32.51
0.89,-9.1,-1.77,32.53
1.24,-5.26,-4.8,32.49
-0.57,-6.69,-3.73,32.52
-1.51,-12.15,0.71,32.51
1.66,-12.64,-0.74,32.53
0.01,-8.68,-1.78,32.52
1.24,-5.56,-4.15,32.5
-0.37,-7.48,-4.6,32.5
-0.54,-11.83,-1.07,32.54
-0.5,-12.14,-0.56,32.47
0.45,-8.16,-3.4,32.51
0.98,-5.8,-5.1,32.52
-1.53,-6.62,-3.99,32.54
-1.33,-10.81,-1.52,32.48
-4.17,-10.44,-0.85,32.5
-2.94,-6.83,-7.79,32.52
-3.46,-7.47,-7.11,32.52
-0.13,-10.76,-2.8,32.49
-1.2,-12.19,-0.89,32.47
-1.17,-10.32,-1.39,32.52
-2.03,-6.46,-9.39,32.56
-2.34,-7.45,-6.42,32.51
-0.3,-11.25,-5.09,32.52
-1.35,-11.15,0.56,32.51
-2.16,-9.79,-2.9,32.47
-1.32,-6.7,-8.71,32.52
-3.14,-6.84,-5.43,32.47
0.01,-10.74,-3.14,32.51
0.01,-11.94,-0.32,32.5
-2.07,-10.49,-1.12,32.49
-3.22,-6.98,-6.71,32.51
-4.13,-7.43,-6.6,32.51
2.01,-8.4,-5.48,32.49
3.42,-6.45,-5.21,32.52
-0.27,-9.48,-1.27,32.47
0.08,-12.3,0.19,32.5
-1.33,-11.15,-3.65,32.48
-0.23,-7.51,-6.17,32.5
1.99,-6.08,-7.46,32.47
-1.47,-9.32,-1.7,32.52
-0.81,-12.47,0.88,32.51
-2.57,-11.95,-4.73,32.51
-1.18,-7.7,-5.16,32.49
0.47,-7.64,-5.35,32.42
-0.69,-9.79,-0.76,32.52
-1.55,-12.67,-0.33,32.49
-2.43,-10.94,-3.66,32.47
0.12,-6.92,-8.05,32.52
2.58,-7.18,-4.55,32.49
0.29,-11.26,-0.02,32.46
-0.37,-12.67,0.43,32.53
-1.69,-12.11,-2.37,32.49
-1.83,-11.65,-0.13,32.53
-2.11,-7.39,-5.13,32.52
-5.35,-6.52,-7.47,32.46
-2.49,-9.13,-4.47,32.49
1.11,-12.33,-1.86,32.49
-2.62,-9.11,-0.77,32.56
-2.13,-6.92,-4.86,32.52
-2.26,-6.69,-7.63,32.52
-0.48,-8.79,-3.2,32.49
0.73,-13.25,-0.62,32.47
-1.13,-10.56,0.38,32.5
0.25,-7.32,-4.81,32.48
-1.34,-6.59,-6.62,32.54
-2.51,-7.18,-4.83,32.48
2.1,-12.59,-1.01,32.51
-1.39,-9.86,1.0,32.46
-2.9,-9.52,-1.13,32.48
-3.32,-6.8,-5.15,32.47
-4.62,-7.17,-4.44,32.48
-0.39,-11.84,-2.58,32.54
-1.12,-10.54,-0.0,32.5
-2.44,-8.2,-2.85,32.47
-4.38,-5.35,-8.0,32.52
-3.53,-8.45,-5.95,32.48
1.75,-11.63,-3.87,32.52
-0.72,-10.25,-0.36,32.48
-3.51,-8.37,-1.96,32.49
-3.59,-5.51,-7.32,32.52
-2.32,-8.87,-7.02,32.48
0.32,-10.92,-2.45,32.5
-0.2,-10.81,-0.47,32.45
-2.96,-9.28,-3.06,32.44
-2.33,-5.8,-8.06,32.5
-1.53,-9.97,-5.38,32.47
0.48,-12.92,-1.44,32.5
-1.96,-11.92,-0.11,32.48
-1.01,-9.43,-3.84,32.52
-1.89,-7.48,-7.9,32.54
-1.63,-9.51,-3.42,32.49
1.9,-13.18,-3.0,32.54
-1.9,-11.14,-1.09,32.46
-1.96,-7.97,-2.44,32.52
-1.04,-7.06,-7.36,32.54
-2.16,-8.03,-5.16,32.49
0.49,-11.57,-1.47,32.49
-1.41,-10.63,-1.19,32.44
-0.66,-8.29,-1.41,32.48
-0.67,-6.17,-8.52,32.45
-2.89,-8.39,-2.93,32.45
2.06,-13.22,-2.6,32.46
-0.77,-9.47,-1.59,32.5
-1.53,-8.0,-3.32,32.48
-1.83,-5.63,-6.63,32.49
-2.27,-8.32,-3.4,32.49
0.58,-12.88,-1.1,32.47
-0.91,-10.58,0.9,32.51
0.64,-8.02,-3.65,32.51
-1.06,-4.37,-7.97,32.51
-3.73,-7.63,-2.81,32.52
0.37,-13.22,-0.43,32.51
-1.22,-10.87,0.05,32.47
-0.16,-7.56,-1.4,32.48
-0.23,-5.85,-7.02,32.5
-3.24,-7.67,-2.23,32.45
-1.68,-11.86,-0.37,32.49
0.6,-11.31,-1.22,32.46
-0.32,-7.33,-2.78,32.44
-1.59,-5.54,-5.66,32.51
-2.76,-9.46,-1.58,32.47
-1.04,-11.08,-2.11,32.5
-1.44,-10.47,-0.67,32.49
0.74,-7.67,-3.43,32.48
-2.02,-4.37,-7.6,32.5
-2.56,-9.07,-2.78,32.5
-0.07,-13.31,-2.59,32.46
-0.38,-11.4,-0.83,32.51
-1.41,-5.49,-3.55,32.49
-1.22,-7.37,-6.22,32.49
-3.79,-7.26,-5.94,32.48
-0.96,-9.58,-2.56,32.47
-1.13,-12.13,-1.33,32.48
-2.31,-8.51,-1.22,32.46
-4.65,-6.06,-7.47,32.51
-4.03,-7.32,-6.2,32.5
-2.25,-10.22,-3.97,32.47
-1.52,-10.49,-0.51,32.5
-2.93,-9.64,-2.49,32.48
-4.64,-6.78,-7.44,32.47
-3.9,-7.43,-6.84,32.46
-1.8,-11.59,-4.52,32.49
-1.66,-11.01,-1.87,32.5
-1.93,-9.38,-3.81,32.51
-4.75,-4.76,-7.38,32.52
-3.22,-7.52,-8.18,32.47
-1.87,-11.64,-3.95,32.47
-1.13,-11.89,-1.34,32.47
-2.2,-8.34,-2.51,32.47
-2.21,-5.96,-8.12,32.52
-5.67,-7.69,-6.24,32.49
-1.96,-10.6,-2.75,32.45
0.85,-13.13,-1.71,32.47
-2.29,-8.85,-2.04,32.51
-3.34,-6.12,-8.42,32.48
-3.57,-9.01,-6.88,32.49
-1.6,-11.54,-2.27,32.49
-0.16,-11.08,-2.15,32.53
-2.66,-8.55,-2.3,32.51
-1.83,-8.46,-4.29,32.5
-3.92,-7.87,-4.56,32.52
-0.22,-10.46,-4.09,32.49
1.66,-11.69,-2.74,32.47
-1.43,-9.74,-0.03,32.49
-1.23,-7.9,-4.78,32.52
-3.11,-6.27,-7.95,32.47
-1.74,-9.74,-2.9,32.46
-1.72,-7.91,-3.42,32.49
-0.54,-5.05,-6.36,32.47
-3.43,-7.74,-3.62,32.49
-2.15,-11.43,-1.63,32.47
-2.34,-11.77,-1.97,32.5
-2.55,-7.2,-4.61,32.51
0.19,-5.34,-8.38,32.52
-4.62,-7.51,-3.03,32.48
-2.61,-12.58,-1.18,32.51
-1.43,-12.33,-1.87,32.5
-0.78,-8.14,-4.47,32.48
-0.36,-4.06,-8.06,32.48
-4.51,-6.61,-3.95,32.47
-2.77,-11.61,-2.48,32.47
-2.1,-11.84,-1.97,32.46
-0.9,-8.49,-4.78,32.48
-0.7,-4.55,-6.96,32.5
-2.09,-8.29,-2.86,32.48
-2.11,-8.06,-5.96,32.45
1.14,-10.12,-3.87,32.47
0.04,-10.64,0.34,32.5
-2.29,-10.58,-0.39,32.49
-3.25,-8.69,-5.29,32.51
-2.61,-6.15,-7.33,32.49
-0.06,-10.5,-4.7,32.52
0.37,-12.2,0.2,32.51
-3.23,-12.77,-0.62,32.48
-2.56,-8.01,-4.89,32.47
-3.08,-8.18,-7.13,32.48
-0.71,-10.58,-4.12,32.51
1.64,-11.47,0.0,32.52
-0.95,-12.57,-1.91,32.49
-2.31,-5.07,-6.42,32.54
-2.57,-7.02,-7.35,32.51
-0.27,-10.88,-3.8,32.52
-1.03,-10.36,-0.48,32.53
-1.05,-11.12,-1.1,32.48
-0.69,-7.64,-6.12,32.49
-3.05,-7.29,-7.75,32.53
-0.1,-9.63,-4.45,32.52
-0.28,-11.88,-0.87,32.47
-3.26,-10.0,-1.06,32.5
-3.22,-6.56,-6.6,32.5
-4.31,-6.68,-8.06,32.51
-2.13,-10.61,-3.72,32.51
-0.7,-13.12,-0.51,32.53
-1.98,-9.65,-1.28,32.49
-2.51,-5.42,-8.06,32.51
-2.95,-8.1,-5.37,32.52
-1.49,-10.26,-2.78,32.47
-1.39,-11.56,-0.68,32.49
-1.92,-9.22,-1.99,32.5
-2.87,-6.56,-6.08,32.48
-4.09,-7.07,-4.8,32.52
-1.1,-10.81,-2.32,32.49
-0.7,-11.7,-0.54,32.47
-4.82,-5.12,-5.1,32.48
-2.75,-10.5,-2.05,32.49
0.1,-12.22,-1.61,32.5
-2.69,-8.3,-1.82,32.44
-2.86,-5.44,-5.94,32.47
-3.47,-6.34,-7.44,32.48
-3.61,-11.17,-0.76,32.52
-0.96,-12.63,-1.32,32.46
-1.68,-9.5,-0.74,32.49
-3.01,-5.86,-7.01,32.49
-3.65,-5.72,-7.57,32.44
-3.27,-11.11,-3.33,32.5
1.28,-12.57,-0.96,32.47
-0.84,-9.69,-1.47,32.48
-2.89,-5.8,-5.71,32.47
-4.25,-7.9,-4.46,32.47
-0.06,-12.21,-3.65,32.52
-0.45,-12.1,-1.01,32.48
-0.02,-8.58,-2.54,32.51
-1.81,-6.91,-5.61,32.47
-4.93,-6.05,-5.75,32.46
-1.77,-11.96,-2.66,32.47
1.98,-12.43,-2.07,32.46
-1.11,-7.96,-2.31,32.47
-2.45,-5.22,-7.17,32.47
-2.81,-6.88,-5.26,32.49
0.35,-12.99,-2.46,32.49
-0.21,-12.31,-2.19,32.44
-1.38,-8.57,-1.59,32.49
-0.91,-6.77,-7.34,32.47
-2.56,-5.43,-6.81,32.48
-0.75,-11.74,-2.09,32.49
-0.76,-12.09,-0.34,32.48
-1.71,-8.78,-2.31,32.5
-2.51,-6.79,-4.86,32.46
-5.03,-6.4,-5.24,32.49
-2.01,-10.63,-2.42,32.47
0.38,-12.29,-1.73,32.5
-0.06,-9.24,-6.02,32.46
-2.08,-8.44,-5.92,32.45
1.99,-7.44,-7.39,32.49
2.0,-9.42,-1.72,32.5
-0.46,-11.9,0.61,32.5
-0.34,-11.1,-1.98,32.49
-0.65,-9.94,-6.61,32.48
-0.84,-7.49,-6.49,32.49
-0.3,-9.31,-2.32,32.49
-0.87,-12.43,-0.97,32.45
-2.92,-10.03,-2.02,32.49
-3.85,-8.96,-6.96,32.48
-0.44,-7.51,-7.67,32.43
0.3,-8.6,-3.92,32.51
-0.22,-11.88,-1.17,32.5
-2.49,-10.62,-1.83,32.45
-2.84,-8.55,-6.43,32.46
0.45,-8.48,-6.13,32.48
1.67,-10.32,-3.35,32.48
-1.05,-11.33,0.13,32.47
-0.56,-13.46,0.23,32.46
-0.33,-11.47,-1.43,32.47
0.7,-6.79,-4.79,32.51
0.42,-4.74,-6.51,32.51
-2.61,-7.78,-2.97,32.47
-0.76,-11.75,-1.18,32.5
-0.71,-11.06,-1.45,32.47
-0.18,-7.96,-3.02,32.47
0.95,-5.98,-5.68,32.49
-1.94,-8.92,-0.98,32.49
-0.57,-12.53,-0.41,32.48
-2.22,-11.58,-1.32,32.5
-1.95,-7.18,-5.79,32.49
0.05,-5.81,-5.72,32.49
-0.46,-9.24,-1.2,32.46
-2.06,-12.6,0.98,32.48
-3.14,-11.62,-0.88,32.49
0.28,-7.69,-4.87,32.49
-3.09,-10.08,-4.12,32.48
-3.64,-6.48,-8.78,32.46
-0.78,-8.94,-6.97,32.49
1.24,-11.35,-2.07,32.51
-2.03,-11.96,-0.65,32.43
-3.69,-8.2,-4.21,32.5
-3.03,-6.18,-8.48,32.47
-2.19,-8.84,-5.46,32.45
-0.17,-11.1,-1.93,32.5
-0.97,-11.7,-0.66,32.46
-2.98,-8.66,-3.69,32.47
-3.81,-7.79,-6.91,32.47
-1.64,-8.96,-5.66,32.47
0.98,-11.73,-1.49,32.53
0.13,-11.88,-0.66,32.5
-1.58,-8.52,-3.7,32.51
-4.47,-6.53,-6.99,32.51
-1.95,-10.12,-3.65,32.49
1.69,-10.36,-2.48,32.5
0.08,-11.04,-0.03,32.41
-1.0,-8.3,-4.63,32.49
-3.17,-6.31,-8.1,32.49
-2.26,-9.26,-4.05,32.47
1.97,-12.85,-2.06,32.51
0.51,-11.28,-0.38,32.49
-2.01,-7.04,-3.79,32.47
-1.23,-7.05,-7.55,32.47
-1.51,-8.26,-4.63,32.5
0.71,-11.49,-1.73,32.48
-0.8,-12.15,0.83,32.45
-0.26,-6.97,-3.88,32.49
-2.01,-7.34,-7.63,32.5
-1.05,-10.12,-2.57,32.5
1.44,-12.23,-1.51,32.42
-0.51,-10.15,-0.83,32.46
-0.99,-8.93,-4.13,32.49
-2.12,-5.11,-7.85,32.44
-2.2,-9.23,-3.86,32.49
2.15,-11.86,-2.21,32.5
-0.71,-9.62,-0.45,32.44
-1.95,-7.93,-4.64,32.49
-1.34,-5.71,-7.53,32.49
-2.07,-9.37,-3.28,32.47
0.62,-12.12,-1.12,32.48
-1.01,-10.79,-0.17,32.48
-1.49,-6.5,-4.81,32.5
-3.64,-5.14,-7.22,32.46
-2.9,-7.81,-2.4,32.44
-0.27,-12.42,-0.98,32.47
-1.69,-9.49,0.89,32.47
-0.74,-6.9,-3.62,32.47
-2.99,-5.17,-7.39,32.47
-4.58,-7.58,-3.86,32.46
-0.23,-11.32,-2.2,32.45
-0.04,-10.24,-0.26,32.47
-2.38,-9.46,-1.51,32.47
-3.51,-5.04,-7.32,32.43
-3.2,-7.47,-4.75,32.46
-0.2,-12.91,-1.52,32.46
-1.96,-10.44,-1.02,32.46
-2.19,-8.7,-2.72,32.44
-4.7,-4.75,-7.11,32.46
-3.12,-8.07,-4.5,32.46
-0.68,-11.69,-2.92,32.48
-1.86,-10.48,1.56,32.44
-1.17,-9.55,-2.0,32.48
-2.7,-4.27,-9.34,32.46
-4.53,-6.68,-6.45,32.47
-0.7,-12.58,-1.47,32.42
0.24,-12.15,-0.6,32.47
-3.65,-8.35,-2.73,32.42
-3.79,-4.79,-8.28,32.44
-3.16,-8.02,-6.0,32.5
-3.95,-9.65,-2.77,32.48
-0.67,-12.07,0.14,32.45
-1.25,-7.84,-3.81,32.41
-4.88,-4.07,-7.11,32.43
1.4,-12.25,-0.48,32.47
-1.01,-10.38,-1.28,32.44
-0.11,-4.12,-5.42,32.48
-3.85,-5.75,-5.91,32.46
-1.49,-10.01,-1.38,32.44
-0.09,-12.5,-0.14,32.46
-1.77,-10.4,-1.13,32.49
-1.59,-5.55,-4.01,32.45
-2.78,-5.99,-5.5,32.49
-1.34,-9.57,-1.88,32.46
-0.28,-13.61,-0.93,32.44
-1.24,-9.92,-1.62,32.41
1.14,-5.26,-5.16,32.45
-2.47,-4.78,-7.23,32.45
-1.47,-9.56,0.01,32.42
0.58,-13.38,-1.03,32.43
-0.16,-9.02,-2.0,32.45
0.22,-4.99,-4.55,32.44
-1.91,-5.17,-5.73,32.44
-2.24,-10.28,-0.64,32.42
-1.46,-12.86,-0.52,32.48
-0.63,-9.2,-3.42,32.42
0.63,-5.43,-6.43,32.48
-2.75,-5.67,-5.28,32.44
-3.35,-10.39,-0.22,32.45
-0.74,-12.77,-1.51,32.47
0.06,-7.85,-2.81,32.47
-0.91,-4.62,-5.66,32.46
-0.77,-5.68,-4.47,32.45
-1.96,-10.54,-1.26,32.44
-2.04,-11.0,0.54,32.43
0.56,-8.87,-2.14,32.47
0.7,-6.24,-5.24,32.44
-1.35,-6.16,-4.2,32.45
-0.32,-10.86,-0.87,32.44
0.32,-12.22,-1.68,32.44
-2.71,-8.79,-1.45,32.43
-0.8,-5.96,-4.87,32.42
-2.36,-7.87,-2.59,32.44
-2.12,-11.7,0.55,32.44
-1.57,-11.49,0.77,32.47
0.4,-7.32,-4.69,32.48
-0.18,-3.85,-5.54,32.45
-3.06,-9.03,-2.03,32.44
-1.38,-11.36,0.11,32.44
-0.19,-11.15,-0.91,32.44
-1.61,-7.96,-2.88,32.47
0.4,-5.28,-4.37,32.45
-0.64,-9.04,-3.08,32.4
-0.69,-11.93,-0.65,32.45
-0.49,-11.45,-1.93,32.45
0.17,-7.18,-4.05,32.43
0.52,-5.04,-6.71,32.44
-2.27,-9.59,-2.53,32.45
0.74,-12.21,-0.48,32.45
0.1,-10.4,-2.01,32.4
-2.52,-5.6,-4.19,32.43
-0.11,-5.72,-6.28,32.43
-1.88,-9.68,-1.67,32.48
-0.68,-11.4,0.57,32.42
1.65,-12.77,-2.9,32.44
0.91,-5.67,-3.84,32.45
0.67,-5.17,-5.39,32.43
-0.68,-10.13,0.25,32.44
-0.22,-12.99,-0.52,32.46
-1.39,-13.13,-2.55,32.44
1.37,-5.09,-5.66,32.46
1.36,-5.58,-7.46,32.42
-3.05,-8.41,-1.57,32.43
-1.21,-12.78,-1.1,32.46
-0.5,-11.99,-2.44,32.45
-0.79,-8.42,-2.38,32.44
0.79,-5.63,-7.52,32.43
-2.1,-6.64,-4.93,32.39
-0.96,-13.19,0.29,32.43
0.5,-12.44,-2.44,32.42
1.12,-8.04,-4.24,32.43
-1.15,-5.37,-5.98,32.47
-2.29,-8.38,-4.41,32.46
-0.6,-10.94,-1.53,32.45
0.03,-10.79,-0.23,32.45
-1.25,-9.13,-1.87,32.44
-1.79,-5.21,-6.34,32.43
-2.82,-5.82,-3.47,32.45
-0.23,-11.18,-1.8,32.46
-0.15,-11.07,0.3,32.44
-1.65,-8.78,-1.13,32.45
-1.23,-3.59,-7.11,32.46
-3.36,-7.58,-3.11,32.43
-1.41,-11.33,-0.78,32.42
0.38,-12.46,-1.24,32.4
-2.38,-7.89,-2.64,32.47
-0.89,-5.38,-6.88,32.43
-2.9,-8.0,-4.07,32.47
-1.47,-11.65,-0.53,32.45
-0.24,-11.62,-1.2,32.43
-2.92,-7.09,-3.0,32.45
-1.68,-5.65,-6.48,32.39
-2.6,-8.45,-4.21,32.4
-0.45,-12.85,-1.29,32.39
-0.08,-10.84,-2.59,32.43
-1.36,-7.06,-3.24,32.42
-0.05,-5.71,-6.72,32.44
-2.31,-7.46,-2.81,32.41
-1.85,-11.43,-0.1,32.39
0.69,-11.43,-1.55,32.44
-0.51,-7.55,-4.59,32.43
-1.53,-4.98,-4.98,32.43
-3.15,-7.52,-2.97,32.46
-1.32,-12.83,-0.36,32.4
-0.92,-12.09,-0.72,32.42
-0.1,-8.66,-3.95,32.47
-0.37,-4.75,-6.69,32.42
-3.07,-7.49,-2.75,32.47
-1.26,-11.94,-0.5,32.38
0.4,-7.77,-4.02,32.43
-0.65,-11.39,-1.16,32.46
-1.61,-12.97,-0.35,32.38
-0.83,-9.48,-6.79,32.44
-3.36,-7.35,-7.35,32.43
0.05,-7.52,-3.86,32.42
0.56,-10.84,-1.21,32.45
-2.89,-12.67,0.85,32.42
-2.82,-10.17,-5.85,32.44
0.13,-7.18,-7.96,32.45
0.56,-7.81,-3.51,32.42
-1.67,-10.63,-1.43,32.4
-2.64,-11.42,0.17,32.41
-0.58,-9.77,-6.85,32.43
0.15,-7.25,-8.55,32.44
0.62,-7.55,-4.01,32.42
-0.77,-11.41,-0.17,32.42
-2.08,-12.62,-1.41,32.43
-2.72,-7.99,-6.58,32.44
-1.12,-6.52,-6.72,32.42
-0.0,-5.01,-7.7,32.4
-1.4,-9.43,-4.09,32.44
-0.71,-12.46,-1.92,32.45
-1.07,-11.66,-0.53,32.42
-1.47,-7.47,-4.45,32.41
-0.46,-4.08,-7.65,32.4
-2.77,-9.53,-1.85,32.39
-0.35,-11.45,-0.69,32.38
0.76,-11.81,-1.55,32.39
-1.26,-7.31,-2.9,32.42
-0.6,-4.85,-6.39,32.41
-2.41,-9.95,-2.66,32.43
-0.55,-12.15,-0.1,32.39
0.45,-12.03,-1.2,32.45
-0.99,-6.91,-4.25,32.44
-1.56,-5.52,-5.76,32.46
-1.63,-9.32,-1.65,32.39
-1.14,-12.94,0.14,32.4
-0.91,-10.69,-0.22,32.45
-0.54,-11.94,-0.32,32.43
-1.83,-9.52,-3.4,32.46
-3.47,-4.77,-7.5,32.44
-4.11,-8.97,-4.6,32.4
0.93,-10.29,-0.67,32.41
0.49,-11.86,-0.2,32.41
-1.95,-7.86,-2.72,32.45
-1.22,-6.39,-6.95,32.39
-1.52,-9.52,-4.94,32.38
-0.3,-11.94,-0.6,32.44
-0.83,-11.37,0.14,32.36
-0.7,-9.01,-4.11,32.43
-2.36,-7.8,-7.34,32.39
-3.91,-6.71,-6.21,32.42
1.95,-11.87,-3.17,32.36
0.52,-12.0,-0.27,32.42
-1.93,-10.82,-0.3,32.43
0.37,-7.59,-6.32,32.38
-0.29,-9.7,-3.95,32.42
-0.15,-7.96,-5.02,32.42
-0.94,-5.97,-6.13,32.44
-3.01,-9.06,-1.74,32.4
-0.16,-12.84,-0.81,32.44
-1.19,-10.44,-2.82,32.4
-0.22,-7.86,-3.98,32.42
1.55,-6.39,-7.81,32.41
-1.07,-8.52,-2.38,32.46
-0.61,-12.41,-0.63,32.39
-1.25,-11.12,-0.8,32.4
0.48,-8.61,-5.14,32.4
2.21,-6.15,-6.53,32.38
-0.21,-9.46,-0.29,32.38
1.02,-12.94,-0.58,32.38
-1.07,-10.75,-2.42,32.39
-1.01,-7.4,-4.7,32.39
1.7,-7.88,-5.07,32.37
1.36,-10.31,-2.14,32.39
-1.97,-5.3,-4.09,32.44
-3.69,-7.46,-3.04,32.44
-0.62,-12.44,-1.39,32.37
-0.07,-11.16,-1.45,32.41
-2.65,-6.51,-1.74,32.39
1.23,-5.02,-6.8,32.38
-4.22,-6.92,-3.76,32.4
-2.46,-11.18,0.18,32.42
2.18,-12.5,0.12,32.44
0.36,-7.11,-3.55,32.43
-0.96,-3.43,-4.37,32.39
-2.4,-8.07,-2.7,32.4
-0.43,-11.97,0.0,32.39
1.14,-10.31,-0.7,32.43
-0.68,-7.95,-4.36,32.43
0.88,-6.09,-5.52,32.43
-1.72,-7.67,-1.12,32.43
-1.47,-12.52,-0.02,32.37
-0.17,-11.06,-2.04,32.41
0.94,-8.07,-3.32,32.43
0.56,-11.09,-0.79,32.38
-1.33,-13.18,0.49,32.4
-2.45,-11.01,-3.7,32.4
0.0,-7.79,-8.17,32.44
2.17,-8.32,-4.96,32.43
0.04,-11.65,-0.9,32.42
-2.66,-12.48,-0.17,32.42
-0.87,-11.22,-4.54,32.42
-1.08,-8.68,-6.78,32.42
-1.16,-7.56,-3.94,32.42
0.45,-11.34,-0.13,32.39
-1.5,-13.55,-0.37,32.41
-1.64,-9.14,-6.64,32.42
-0.44,-8.08,-7.92,32.45
1.6,-9.17,-3.18,32.39
0.08,-11.15,-0.9,32.41
-1.95,-12.4,-0.66,32.39
-0.14,-8.66,-6.63,32.4
1.04,-13.89,-1.99,32.38
-1.13,-8.23,-1.59,32.38
-3.83,-5.08,-5.8,32.44
-3.74,-6.58,-6.68,32.4
-2.75,-9.45,-1.75,32.39
1.06,-12.37,-1.19,32.42
-1.51,-9.72,-1.7,32.4
-2.79,-4.2,-6.23,32.38
-3.67,-6.05,-5.95,32.42
-0.64,-11.21,-3.48,32.39
-0.05,-12.36,-1.09,32.39
-2.13,-8.65,-1.26,32.44
-0.95,-5.26,-6.86,32.39
-4.29,-6.53,-5.93,32.4
-2.42,-11.41,-0.5,32.4
0.27,-12.62,-2.15,32.43
-1.37,-8.61,-1.73,32.41
0.57,-6.66,-5.44,32.42
-3.84,-6.08,-6.34,32.39
-0.49,-7.95,-5.9,32.39
1.0,-10.42,-1.41,32.35
1.02,-13.46,-1.53,32.34
-1.15,-8.93,-4.2,32.37
-3.21,-7.79,-6.31,32.41
2.06,-9.31,-5.1,32.38
0.28,-11.68,-1.67,32.39
-0.43,-12.24,-0.65,32.44
0.44,-11.82,-1.3,32.41
-0.74,-9.01,-6.65,32.37
0.79,-7.81,-6.01,32.42
1.27,-9.71,-2.54,32.41
0.73,-11.2,-0.78,32.38
0.48,-12.33,-1.79,32.39
-1.47,-8.49,-5.18,32.36
0.61,-8.65,-6.45,32.43
1.66,-10.07,-2.31,32.39
0.39,-11.54,-0.08,32.41
-2.51,-11.7,-0.15,32.38
-2.57,-9.08,-4.35,32.37
0.51,-8.26,-7.36,32.38
0.89,-9.34,-3.14,32.4
-0.37,-10.76,0.8,32.38
-1.36,-12.44,-1.33,32.36
-0.85,-9.23,-3.87,32.35
-0.37,-9.23,-6.02,32.4
0.79,-8.75,-3.38,32.43
0.25,-11.36,-0.26,32.39
-2.33,-10.79,-1.21,32.4
-1.59,-8.82,-5.01,32.4
0.31,-8.3,-8.02,32.37
2.16,-7.13,-3.76,32.42
-0.52,-10.66,0.13,32.4
-3.82,-11.31,0.91,32.39
-2.52,-8.54,-5.17,32.37
-0.18,-7.57,-5.71,32.35
0.92,-8.48,-2.7,32.34
-1.58,-11.55,0.37,32.39
-3.13,-11.94,0.77,32.39
0.35,-11.29,0.05,32.37
-4.53,-9.87,-0.62,32.37
-5.26,-7.12,-6.44,32.42
-1.78,-6.86,-7.1,32.46
1.26,-9.97,-3.5,32.38
-0.44,-10.71,-1.0,32.42
-3.69,-9.48,-0.19,32.43
-2.86,-6.84,-6.24,32.39
-2.01,-9.41,-5.83,32.37
0.75,-9.47,-3.67,32.41
0.49,-11.43,-0.57,32.35
-0.17,-10.3,-2.52,32.37
-0.9,-6.52,-7.13,32.42
-3.19,-8.38,-6.7,32.38
1.61,-9.62,-3.69,32.41
-0.23,-11.91,-0.19,32.42
-2.18,-10.28,-1.88,32.41
-2.03,-8.0,-6.74,32.39
-3.87,-7.8,-6.13,32.41
-2.03,-3.78,-7.14,32.39
-2.94,-7.91,-5.15,32.39
-0.19,-12.05,-1.85,32.34
-0.02,-12.19,0.47,32.36
-0.41,-8.63,-2.22,32.37
-1.28,-4.38,-8.08,32.41
-2.69,-7.68,-4.92,32.39
-0.94,-11.78,-1.84,32.36
-1.81,-10.54,0.28,32.43
-0.54,-9.96,-2.77,32.41
-1.25,-4.24,-8.27,32.38
-3.38,-7.37,-3.03,32.41
0.11,-13.54,-3.1,32.4
0.56,-10.69,0.29,32.39
-1.55,-8.1,-2.89,32.44
0.25,-4.9,-7.69,32.35
-2.48,-7.58,-4.58,32.43
-2.29,-12.36,-0.66,32.39
0.38,-12.17,-1.36,32.38
0.04,-10.63,-3.86,32.38
-1.96,-7.18,-7.85,32.38
-0.53,-8.31,-5.72,32.4
1.45,-11.69,-3.72,32.39
-0.73,-10.39,-1.1,32.41
-2.97,-9.74,-3.28,32.35
-2.11,-7.4,-7.57,32.41
-2.46,-7.9,-4.55,32.42
-0.65,-11.2,-2.87,32.37
-1.04,-11.46,-0.52,32.35
-2.51,-9.96,-3.52,32.4
-4.1,-6.18,-8.37,32.38
-3.12,-7.78,-5.72,32.4
-1.02,-11.8,-1.96,32.39
-1.64,-10.2,-0.68,32.39
-3.15,-10.35,-3.41,32.38
-3.36,-5.68,-10.17,32.4
-4.15,-8.14,-5.15,32.39
0.53,-10.72,-4.12,32.37
-0.17,-12.76,0.22,32.39
-1.46,-9.44,-4.71,32.39
-0.45,-8.21,-6.15,32.39
2.64,-8.41,-3.72,32.37
1.6,-8.87,-3.61,32.4
-1.46,-12.45,1.2,32.38
-0.14,-9.15,-6.33,32.4
0.86,-7.72,-6.33,32.38
0.62,-6.95,-5.36,32.38
0.2,-9.17,-2.07,32.41
-1.84,-11.78,0.63,32.39
-0.57,-10.35,-3.3,32.39
-1.93,-7.7,-6.48,32.38
0.57,-6.62,-4.45,32.39
0.84,-10.36,-1.9,32.34
-2.02,-12.43,1.11,32.39
-1.27,-11.12,-2.52,32.38
0.53,-9.56,-4.79,32.41
0.31,-6.25,-5.64,32.35
-2.37,-4.25,-6.37,32.38
-3.8,-5.77,-9.73,32.41
-4.32,-8.03,-3.37,32.39
0.12,-12.39,-2.1,32.44
-1.56,-10.83,-1.61,32.41
-2.44,-8.72,-3.26,32.38
-3.8,-5.15,-9.03,32.34
-2.88,-8.4,-3.22,32.38
0.85,-14.33,-2.4,32.34
-2.82,-10.49,0.81,32.39
-2.26,-9.93,-2.05,32.42
-4.48,-6.02,-8.0,32.41
-2.79,-8.15,-3.68,32.39
-0.19,-12.32,-2.18,32.4
-1.98,-9.92,0.48,32.41
-2.21,-7.59,-2.55,32.33
-4.17,-5.76,-6.89,32.4
-1.83,-7.96,-4.52,32.39
0.67,-11.65,-3.27,32.36
-0.43,-9.66,1.05,32.36
-1.26,-10.08,-3.34,32.37
-4.23,-9.97,-4.59,32.37
0.16,-6.82,-6.39,32.4
1.12,-9.18,-3.9,32.34
-1.64,-10.39,0.2,32.34
-0.96,-11.76,-3.06,32.36
-2.77,-7.16,-6.04,32.34
-1.56,-7.36,-6.23,32.37
1.27,-8.88,-3.99,32.35
-2.29,-10.53,-0.29,32.35
-1.66,-13.57,-2.09,32.41
-3.22,-7.47,-6.85,32.35
-0.29,-8.01,-7.16,32.37
-0.52,-9.65,-4.13,32.34
-2.21,-9.78,0.15,32.37
-0.81,-13.34,-3.04,32.38
-2.26,-8.19,-7.12,32.37
-1.68,-7.18,-5.48,32.4
0.87,-10.97,-3.54,32.39
-1.32,-11.86,0.13,32.37
-1.84,-12.27,-2.79,32.37
-4.33,-8.18,-6.16,32.38
-1.2,-7.07,-6.31,32.35
0.23,-10.76,-5.16,32.38
-1.9,-11.03,-0.95,32.38
-2.65,-12.18,-2.51,32.35
-1.78,-7.3,-6.89,32.34
-3.95,-7.22,-7.01,32.37
-0.82,-9.91,-3.9,32.39
-2.04,-11.54,-1.33,32.39
-3.16,-11.46,-1.98,32.39
-3.53,-6.36,-8.36,32.38
-2.88,-7.14,-7.2,32.39
-0.6,-10.28,-3.09,32.38
-1.36,-10.65,-0.55,32.34
-2.59,-11.51,-3.01,32.41
-3.77,-5.99,-7.64,32.4
-2.27,-7.3,-6.31,32.38
-3.75,-11.23,-1.76,32.34
-2.26,-8.08,-6.76,32.39
-3.0,-7.95,-4.07,32.38
-0.35,-9.98,-3.53,32.35
-0.83,-11.58,0.03,32.38
-3.11,-10.95,-2.57,32.39
-3.36,-6.19,-7.2,32.39
-2.33,-8.9,-4.9,32.34
0.4,-9.65,-3.59,32.37
-0.68,-12.36,0.21,32.34
-3.04,-8.82,-2.05,32.39
-3.14,-5.21,-7.1,32.33
-2.88,-8.39,-5.7,32.33
0.1,-8.29,-4.85,32.35
0.23,-10.87,-0.9,32.37
-1.89,-9.96,-0.01,32.33
-1.88,-7.56,-4.47,32.38
-3.82,-7.71,-4.65,32.33
1.16,-10.09,-2.78,32.33
0.35,-11.39,-0.11,32.34
-0.58,-9.71,-1.97,32.39
-3.09,-7.25,-5.66,32.39
-3.94,-7.14,-5.46,32.37
0.57,-9.61,-3.94,32.37
-0.18,-11.75,-0.37,32.35
-2.21,-10.09,0.34,32.36
-3.13,-7.33,-6.19,32.35
-3.91,-7.75,-6.88,32.35
0.33,-9.47,-5.53,32.38
-0.04,-11.5,-0.51,32.32
-1.0,-10.38,-1.59,32.39
-2.85,-7.67,-6.07,32.36
-3.93,-6.32,-7.71,32.37
-0.2,-9.78,-5.86,32.37
0.04,-11.03,-0.16,32.38
-2.45,-10.2,-0.04,32.34
-2.48,-8.56,-4.87,32.36
-3.85,-6.73,-7.22,32.34
0.62,-12.05,-3.01,32.4
-2.04,-11.26,-0.15,32.37
-3.23,-9.7,-1.84,32.38
-1.43,-6.41,-8.61,32.38
-2.11,-8.07,-5.8,32.34
0.61,-11.39,-1.86,32.3
0.23,-11.94,0.73,32.39
-0.67,-8.56,-2.59,32.35
-4.84,-4.99,-8.37,32.33
-1.79,-7.97,-4.58,32.37
2.97,-12.28,-3.66,32.37
-0.68,-10.99,0.69,32.34
-1.4,-8.11,-2.98,32.38
-2.33,-5.41,-7.47,32.33
-1.79,-8.71,-3.69,32.36
1.5,-12.98,-2.48,32.34
-0.57,-9.41,0.52,32.39
-0.94,-7.32,-2.77,32.34
-2.1,-7.18,-6.59,32.38
2.18,-12.33,-3.34,32.37
-0.9,-10.13,-0.33,32.38
-2.97,-7.47,-3.04,32.38
-3.73,-6.15,-8.95,32.34
-1.53,-9.31,-3.28,32.35
0.43,-11.25,-2.95,32.38
-0.66,-10.8,-1.21,32.38
-0.68,-6.48,-4.93,32.38
-3.34,-4.37,-8.2,32.36
-0.68,-9.12,-4.01,32.39
0.14,-11.55,-2.54,32.37
-2.51,-9.67,-0.46,32.36
-0.19,-7.07,-4.06,32.38
-2.43,-5.93,-7.99,32.38
-4.06,-8.69,-2.09,32.37
0.06,-12.66,-2.83,32.35
-1.19,-11.93,-0.33,32.37
-1.0,-7.07,-5.88,32.34
-3.21,-5.71,-8.02,32.37
-0.33,-12.02,-1.12,32.38
-1.89,-11.19,-0.55,32.39
-1.28,-9.26,-2.29,32.33
-1.17,-5.63,-6.04,32.38
-4.32,-7.16,-5.38,32.35
-0.85,-11.07,-2.05,32.34
-0.21,-11.2,-0.82,32.37
-2.44,-7.6,-0.87,32.33
-1.79,-5.82,-6.72,32.37
-4.0,-6.25,-4.48,32.36
-0.64,-10.54,-1.63,32.39
-0.45,-10.62,-1.26,32.37
-3.21,-9.22,0.4,32.38
-1.33,-5.78,-6.21,32.4
-3.33,-6.99,-6.29,32.36
-3.14,-9.8,-0.01,32.36
-0.68,-12.32,-0.22,32.37
-1.33,-9.07,-1.29,32.37
-1.89,-5.35,-7.82,32.35
-1.34,-8.43,-4.71,32.36
1.09,-9.14,-4.26,32.34
2.37,-14.58,-2.04,32.37
-2.79,-10.0,-2.4,32.36
-2.46,-8.2,-5.98,32.34
0.19,-7.71,-8.05,32.38
0.43,-9.82,-4.93,32.35
0.18,-11.7,-1.34,32.36
-1.27,-11.87,-1.49,32.32
-2.33,-7.76,-6.31,32.42
-3.24,-8.02,-6.02,32.29
0.71,-11.13,-2.19,32.36
1.69,-12.9,-1.29,32.32
-1.03,-11.31,-0.48,32.37
-0.03,-10.01,-5.06,32.33
0.52,-9.05,-6.28,32.33
0.94,-7.79,-3.35,32.39
0.78,-11.81,-0.46,32.34
-0.78,-11.42,-0.11,32.37
-1.04,-12.95,-3.23,32.36
-2.41,-9.7,-0.08,32.35
-1.14,-7.95,-4.11,32.37
-0.74,-5.56,-5.84,32.34
-2.23,-10.06,-1.61,32.36
-1.0,-11.55,-0.5,32.37
0.3,-10.89,-0.34,32.29
0.33,-7.17,-5.19,32.35
-0.9,-5.69,-4.99,32.35
-1.04,-10.13,-1.19,32.31
0.61,-12.62,-0.41,32.35
0.37,-10.48,-2.52,32.34
-1.63,-5.73,-3.22,32.37
-0.42,-7.45,-3.45,32.39
-0.05,-10.67,-1.32,32.31
-0.33,-12.9,-1.11,32.35
-1.4,-9.79,-1.25,32.38
2.12,-6.14,-6.04,32.32
1.68,-6.59,-4.48,32.35
-0.89,-10.81,-0.11,32.38
-2.69,-8.44,-0.34,32.36
0.69,-5.12,-5.14,32.37
-2.29,-6.05,-5.42,32.34
-2.8,-10.56,0.45,32.35
0.06,-12.7,-1.05,32.31
0.91,-8.78,-2.1,32.38
0.16,-4.67,-4.58,32.36
-2.49,-4.97,-5.09,32.38
-1.42,-10.64,-1.47,32.37
0.66,-11.67,-1.24,32.34
-0.07,-8.56,-0.89,32.31
0.83,-6.29,-5.7,32.37
-1.83,-5.17,-4.16,32.34
-1.9,-11.89,0.03,32.37
-0.28,-12.71,-0.28,32.37
-1.42,-9.36,-2.54,32.35
-1.34,-5.21,-4.97,32.38
-0.92,-7.35,-5.58,32.37
-2.23,-11.96,0.14,32.37
-0.09,-11.57,-0.82,32.36
0.41,-10.35,-1.89,32.38
-0.59,-5.03,-5.68,32.38
-2.76,-6.24,-4.55,32.37
-0.87,-11.99,-0.69,32.37
-0.69,-10.9,-0.87,32.36
-3.17,-8.72,-2.15,32.34
-1.59,-5.73,-6.04,32.37
-1.09,-6.79,-4.18,32.33
-1.0,-11.98,-0.14,32.37
-0.35,-13.06,-2.17,32.37
0.7,-9.69,-2.55,32.33
0.98,-6.61,-6.16,32.37
0.24,-6.88,-4.8,32.35
0.87,-12.16,-0.2,32.35
-1.53,-11.73,-2.35,32.35
0.3,-8.21,-2.48,32.35
2.35,-7.75,-7.24,32.36
0.09,-6.18,-3.52,32.33
-0.91,-8.15,-5.14,32.37
3.29,-7.72,-6.14,32.33
-0.43,-8.71,-0.23,32.36
-1.28,-13.07,-0.28,32.36
-1.14,-10.54,-3.59,32.34
-1.08,-9.37,-5.16,32.39
-0.01,-5.89,-5.49,32.36
0.68,-10.06,-0.61,32.37
-0.11,-13.31,-1.25,32.37
-3.18,-8.17,-3.73,32.34
-0.59,-7.46,-5.08,32.37
1.15,-7.34,-3.96,32.33
-1.84,-9.8,-0.3,32.39
0.28,-12.16,-0.03,32.39
-0.44,-10.12,-4.59,32.31
-0.16,-7.14,-5.63,32.37
0.63,-6.68,-5.44,32.35
-0.28,-10.47,-1.14,32.34
-0.33,-12.15,0.02,32.36
-0.48,-10.76,-0.12,32.41
-0.59,-8.1,-4.66,32.38
-3.78,-5.17,-7.48,32.42
-1.22,-9.83,-4.31,32.32
0.61,-12.21,-1.6,32.34
-0.88,-8.91,0.17,32.37
-2.71,-6.64,-6.0,32.32
-3.39,-4.04,-8.87,32.35
-2.71,-9.26,-3.34,32.32
-0.15,-9.98,-4.08,32.38
-2.09,-10.37,-1.25,32.33
-3.57,-9.28,-1.7,32.33
-2.2,-5.7,-9.5,32.35
-3.04,-8.96,-3.08,32.32
-0.92,-11.36,-3.28,32.32
-2.03,-12.15,-0.31,32.33
-2.31,-8.72,-2.37,32.38
-4.15,-5.88,-8.62,32.33
-4.73,-7.68,-3.69,32.32
-3.93,-8.29,-4.61,32.37
-3.08,-6.27,-7.11,32.38
-0.93,-9.32,-7.26,32.37
0.69,-10.15,-1.64,32.37
-0.25,-12.0,-1.78,32.37
-1.76,-10.33,-2.28,32.35
-2.2,-8.65,-8.16,32.37
-0.95,-8.74,-5.23,32.3
1.73,-11.4,-2.04,32.37
0.14,-10.49,-1.32,32.32
-4.31,-9.94,-1.58,32.34
-2.81,-8.03,-7.76,32.36
-0.57,-7.68,-6.02,32.36
0.6,-10.51,-3.16,32.36
-0.66,-11.08,-0.56,32.37
-1.47,-9.0,-2.4,32.38
-2.29,-7.52,-8.24,32.36
-1.41,-7.69,-5.91,32.33
0.75,-10.16,-2.49,32.37
-0.18,-11.87,-0.26,32.31
-2.59,-8.26,-3.04,32.34
-4.39,-5.87,-8.55,32.32
-3.08,-8.43,-4.64,32.39
0.29,-11.37,-2.61,32.36
-0.11,-10.86,-1.04,32.37
-1.75,-8.91,-3.51,32.35
-2.38,-7.45,-6.61,32.38
-1.46,-10.15,-6.01,32.35
1.05,-12.11,-3.12,32.36
0.34,-10.27,-2.07,32.36
-0.39,-8.33,-4.39,32.37
-4.04,-6.64,-7.64,32.33
-1.4,-9.13,-5.45,32.35
2.28,-11.59,-3.15,32.39
-0.77,-10.15,0.21,32.33
-0.42,-9.51,-3.22,32.33
-1.89,-6.42,-9.64,32.34
-3.39,-8.69,-5.28,32.37
0.24,-5.31,-6.8,32.35
-2.59,-8.2,-1.69,32.35
-0.61,-11.9,0.74,32.31
0.99,-11.77,-1.55,32.34
0.53,-7.5,-4.64,32.34
1.8,-5.39,-6.51,32.37
-0.18,-8.78,-2.27,32.31
0.53,-11.44,0.14,32.32
-0.28,-12.73,-2.07,32.37
0.66,-6.63,-5.23,32.39
2.18,-5.74,-5.37,32.34
0.24,-9.36,-2.95,32.37
-1.74,-12.69,0.57,32.33
-1.58,-11.16,-3.28,32.35
-1.05,-7.76,-4.2,32.34
1.94,-6.51,-5.01,32.37
-1.6,-9.14,-2.21,32.36
-0.8,-13.86,1.1,32.32
-1.73,-11.99,-2.07,32.37
-1.87,-7.33,-5.9,32.34
0.05,-6.9,-7.1,32.34
-0.57,-10.45,-2.67,32.34
-0.86,-12.73,0.67,32.34
-2.03,-11.48,-2.23,32.34
-0.0,-7.63,-5.35,32.35
1.96,-7.39,-5.37,32.34
0.17,-9.41,-2.18,32.35
0.58,-13.61,-0.07,32.35
-1.97,-10.55,-3.96,32.37
-0.64,-6.62,-6.06,32.34
0.83,-8.85,-6.28,32.32
0.61,-9.92,-0.96,32.34
0.03,-13.53,-0.23,32.37
-1.33,-10.85,-4.6,32.37
-0.79,-7.42,-5.26,32.37
2.01,-8.02,-4.65,32.34
0.88,-11.47,-1.58,32.37
-0.85,-12.62,0.87,32.35
-1.64,-11.03,-5.57,32.36
-1.64,-11.15,-1.74,32.34
-1.09,-12.46,0.0,32.34
-0.24,-11.29,-5.28,32.35
-0.74,-8.04,-6.04,32.33
-0.98,-7.32,-3.37,32.35
0.86,-11.26,-1.89,32.33
0.21,-13.59,-0.77,32.35
-1.86,-9.69,-3.72,32.35
0.9,-9.41,-5.08,32.3
1.82,-6.31,-5.7,32.33
-0.23,-8.57,-3.55,32.35
-0.51,-12.28,-0.4,32.28
0.37,-13.16,-1.67,32.37
-1.02,-8.08,-6.21,32.3
-0.71,-6.65,-6.69,32.33
0.49,-8.34,-2.76,32.39
-2.35,-12.92,-0.36,32.33
-0.54,-12.62,-3.42,32.35
-0.67,-8.47,-6.04,32.34
-0.54,-8.3,-3.19,32.3
-2.27,-5.49,-5.89,32.35
-3.94,-5.78,-6.66,32.34
-2.32,-9.52,-0.56,32.3
-0.59,-12.17,-0.41,32.31
-2.28,-10.33,-2.39,32.37
-0.26,-6.43,-5.66,32.35
-2.43,-6.21,-6.89,32.33
-4.03,-10.34,-0.98,32.33
-1.42,-12.93,-0.45,32.36
-1.0,-10.53,-1.53,32.37
-1.68,-7.31,-5.72,32.34
-3.01,-4.91,-8.6,32.32
-3.2,-9.84,-1.19,32.35
1.59,-13.01,-1.34,32.37
-2.01,-10.92,-1.53,32.36
-2.38,-5.0,-5.79,32.34
-1.46,-5.87,-6.76,32.33
-1.54,-10.77,-0.65,32.36
-1.49,-12.15,1.06,32.34
-1.78,-9.24,-4.67,32.38
-1.61,-6.28,-5.34,32.35
1.2,-8.35,-4.87,32.37
-0.05,-11.48,0.85,32.31
-0.63,-13.3,0.28,32.34
-0.62,-9.86,-5.5,32.31
0.23,-6.55,-5.77,32.33
0.35,-8.64,-6.2,32.35
-0.82,-9.84,-0.79,32.35
0.79,-13.12,-0.79,32.34
0.16,-8.75,-5.83,32.36
-3.01,-7.06,-5.82,32.34
1.67,-7.62,-3.31,32.35
1.13,-11.89,-1.46,32.36
-2.67,-11.9,-0.48,32.33
-1.52,-9.35,-6.05,32.36
-0.04,-7.61,-9.33,32.32
-1.31,-7.28,-3.68,32.34
-1.76,-12.03,0.08,32.36
-2.94,-12.41,-1.19,32.31
-2.29,-9.4,-6.8,32.34
-1.78,-8.58,-6.12,32.32
-0.15,-8.54,-4.15,32.36
-0.0,-10.89,-0.89,32.37
-1.77,-13.14,-0.5,32.4
-1.68,-8.83,-6.62,32.35
-0.49,-8.21,-6.54,32.36
1.29,-8.83,-4.32,32.35
-0.97,-11.12,-0.51,32.36
-1.2,-11.16,-1.29,32.37
-0.69,-9.17,-6.6,32.36
-0.55,-7.78,-6.28,32.38
1.14,-10.22,-2.93,32.37
1.06,-12.18,-0.62,32.32
-0.43,-12.33,-1.17,32.32
-1.36,-9.0,-5.73,32.33
-2.24,-8.7,-6.81,32.34
-2.68,-7.35,-3.87,32.33
-1.82,-4.92,-9.07,32.36
-2.8,-10.03,-3.86,32.34
-1.55,-12.18,-1.55,32.35
-1.6,-11.4,-1.7,32.33
-1.54,-7.55,-4.76,32.32
-3.5,-4.16,-8.31,32.36
-3.42,-10.26,-3.18,32.35
-0.75,-12.18,-2.35,32.35
-0.85,-9.9,-1.93,32.34
-2.03,-6.54,-4.23,32.34
-3.74,-4.87,-6.79,32.32
-3.45,-10.12,-2.74,32.34
0.44,-12.02,-1.87,32.37
-0.21,-11.54,-1.24,32.37
-2.08,-7.13,-4.04,32.34
-1.77,-4.91,-7.85,32.34
-3.7,-10.24,-2.86,32.34
-1.69,-12.43,-0.74,32.35
0.84,-5.82,-6.95,32.38
1.01,-6.39,-4.57,32.36
-1.13,-11.43,0.57,32.33
0.12,-12.01,-1.3,32.32
-2.29,-9.1,-4.55,32.33
0.44,-5.4,-6.01,32.31
2.2,-6.69,-5.41,32.37
-0.97,-12.07,1.48,32.37
-1.16,-12.72,0.07,32.36
-0.45,-11.56,-2.65,32.33
-0.12,-6.73,-5.15,32.34
0.56,-6.33,-5.73,32.39
-1.25,-9.18,-0.74,32.32
-0.68,-12.89,0.19,32.36
-1.96,-10.08,-2.58,32.32
-1.77,-7.12,-6.13,32.32
2.2,-7.86,-5.09,32.35
-0.57,-9.11,-1.19,32.35
0.23,-13.21,0.27,32.33
-1.13,-9.79,-4.36,32.33
-2.41,-7.46,-5.85,32.36
1.31,-7.58,-5.56,32.38
1.26,-11.05,-1.38,32.33
-0.4,-12.04,0.51,32.33
-2.99,-9.88,-3.41,32.34
0.34,-8.41,-5.47,32.35
2.5,-7.89,-4.86,32.33
0.56,-10.19,-0.86,32.32
-1.06,-12.3,1.38,32.37
0.32,-10.35,-3.74,32.36
0.06,-7.32,-5.91,32.33
1.0,-6.91,-3.43,32.37
1.35,-12.1,-1.25,32.39
-0.76,-12.31,0.89,32.36
-1.55,-9.14,-4.37,32.38
1.57,-9.26,-5.71,32.32
0.76,-6.8,-3.45,32.32
0.3,-10.99,-1.33,32.3
0.04,-13.13,-0.7,32.37
-3.13,-6.06,-7.69,32.34
-1.11,-7.38,-7.41,32.4
-0.61,-9.9,-2.69,32.36
-0.38,-11.46,-0.79,32.35
-1.48,-11.37,-1.67,32.34
-2.84,-6.97,-7.46,32.32
-2.65,-7.41,-6.2,32.38
0.89,-9.82,-3.25,32.3
-0.94,-10.9,-1.16,32.37
-2.47,-10.58,-1.75,32.34
-2.99,-7.42,-7.75,32.33
-3.12,-7.97,-5.92,32.36
-0.14,-10.56,-3.72,32.34
-1.05,-10.51,-0.55,32.34
-1.26,-11.27,-2.43,32.34
-2.49,-6.97,-8.37,32.34
-3.87,-7.51,-5.91,32.37
0.59,-10.86,-3.83,32.3
-1.13,-10.73,-0.18,32.37
-1.32,-9.97,-2.15,32.38
0.07,-11.25,-1.13,32.34
-1.76,-10.24,-2.62,32.32
-3.39,-6.94,-6.5,32.36
-3.41,-8.26,-4.88,32.38
0.52,-10.23,-4.02,32.34
-2.0,-10.27,-0.09,32.37
-3.11,-10.04,-1.71,32.35
-2.55,-6.49,-9.22,32.35
-2.92,-8.07,-5.98,32.37
-1.31,-10.6,-3.92,32.34
-1.6,-11.33,-0.28,32.35
-2.28,-10.04,-3.11,32.35
-2.98,-6.05,-7.71,32.31
-3.11,-7.58,-5.03,32.32
-0.35,-11.04,-2.93,32.33
-1.91,-11.13,0.27,32.37
-1.86,-10.26,-2.06,32.3
-1.91,-4.86,-8.36,32.37
-3.46,-7.92,-4.33,32.35
-0.36,-12.26,-3.08,32.27
-0.54,-11.28,-0.89,32.35
-0.78,-9.13,-4.19,32.32
-3.0,-3.97,-8.36,32.37
-3.92,-7.86,-4.83,32.33
-0.49,-11.73,-2.72,32.36
-1.3,-11.61,-1.7,32.38
-1.74,-7.73,-4.48,32.39
-1.72,-6.09,-6.73,32.35
-2.99,-8.44,-4.39,32.37
-1.32,-11.57,-1.55,32.33
-0.61,-11.22,-1.83,32.31
-0.43,-8.91,-3.6,32.32
-1.47,-5.5,-7.01,32.32
-3.12,-7.86,-3.56,32.34
1.19,-12.25,-1.35,32.33
-0.63,-11.14,-1.07,32.34
-1.25,-8.57,-2.68,32.29
0.65,-6.75,-7.35,32.33
-1.1,-9.98,-0.25,32.32
-1.45,-11.27,-1.2,32.32
-0.35,-11.35,-0.53,32.36
-0.31,-7.6,-4.4,32.37
0.27,-5.47,-6.35,32.34
-1.24,-10.91,0.28,32.31
0.46,-12.45,-1.98,32.33
0.26,-11.17,-0.79,32.36
-0.73,-7.54,-2.83,32.34
0.54,-6.42,-5.99,32.34
-1.97,-7.93,-3.9,32.34
0.64,-11.7,-0.06,32.32
0.96,-11.81,-1.95,32.36
-1.84,-6.54,-2.6,32.36
0.02,-4.87,-5.36,32.34
-1.45,-8.43,-3.37,32.29
-1.99,-11.01,0.38,32.33
1.63,-11.54,-1.86,32.34
-0.11,-7.48,-5.09,32.34
0.56,-6.22,-4.34,32.33
-1.16,-10.45,-0.84,32.32
-0.11,-13.44,-0.01,32.35
-0.38,-10.78,-3.4,32.31
-1.64,-5.38,-6.88,32.3
-0.26,-6.4,-4.66,32.34
-1.45,-11.29,-0.93,32.3
-1.35,-11.89,-0.39,32.34
-1.58,-10.75,-4.05,32.31
-1.8,-6.16,-6.32,32.34
-0.1,-7.64,-3.75,32.36
0.01,-11.94,-1.7,32.32
0.28,-12.41,-0.25,32.29
-1.31,-10.93,-4.84,32.34
0.07,-7.51,-5.74,32.34
1.32,-8.59,-4.61,32.32
0.1,-11.21,-1.31,32.29
0.7,-12.69,-0.17,32.32
-2.04,-8.57,-4.44,32.32
0.21,-7.16,-5.62,32.34
0.87,-8.42,-2.82,32.31
-0.14,-12.87,0.57,32.33
-0.76,-11.37,-2.93,32.34
-0.99,-8.97,-5.48,32.3
1.8,-6.78,-5.61,32.33
0.36,-9.03,-2.08,32.34
-1.47,-12.23,0.23,32.3
-0.45,-11.84,-1.96,32.33
-0.57,-9.09,-5.2,32.35
0.31,-6.72,-6.11,32.34
0.54,-9.46,-2.84,32.28
-1.07,-12.2,1.04,32.34
-1.71,-12.38,-2.17,32.34
-0.2,-8.83,-4.85,32.31
-0.79,-7.5,-6.13,32.32
-0.86,-9.93,-2.3,32.3
0.82,-12.06,-0.58,32.34
-0.28,-13.16,-2.41,32.31
-2.57,-7.11,-5.45,32.33
-1.37,-7.42,-5.47,32.33
2.1,-11.15,-2.55,32.33
1.25,-11.81,0.5,32.34
-0.91,-12.11,-2.75,32.29
0.26,-6.85,-7.33,32.29
0.2,-7.96,-7.06,32.36
0.28,-9.78,-1.24,32.29
0.25,-12.44,-0.9,32.28
0.87,-10.59,-3.8,32.33
-2.0,-7.64,-6.04,32.32
-1.05,-8.35,-6.8,32.31
1.4,-10.14,-2.21,32.33
0.53,-12.77,-0.52,32.29
-0.86,-10.62,-1.81,32.29
-1.25,-7.97,-6.61,32.29
-1.39,-7.86,-5.19,32.35
1.31,-10.82,-1.71,32.33
1.7,-13.47,-0.43,32.32
-0.97,-10.1,-1.85,32.31
-1.56,-8.31,-6.75,32.35
-1.13,-8.47,-5.83,32.35
1.65,-10.73,-1.73,32.32
-0.39,-12.61,-0.33,32.32
-1.71,-9.81,-1.41,32.29
-2.38,-7.25,-7.47,32.27
-2.78,-8.74,-5.32,32.3
0.61,-10.69,-3.54,32.3
-0.65,-10.96,-0.6,32.32
-1.75,-10.16,-0.97,32.31
-1.54,-6.99,-7.57,32.31
-2.51,-7.17,-6.54,32.29
0.93,-11.49,-3.35,32.35
-0.07,-11.25,0.34,32.33
-1.64,-10.36,-2.15,32.32
-1.46,-6.67,-8.45,32.29
-3.2,-7.16,-5.78,32.35
0.48,-5.75,-6.07,32.3
-0.92,-8.24,-2.86,32.34
0.59,-13.04,-0.15,32.31
-1.15,-11.9,-1.72,32.28
-0.6,-8.3,-5.37,32.27
1.07,-5.91,-8.06,32.33
-0.63,-5.66,-6.58,32.27
-1.01,-12.49,0.71,32.33
0.58,-12.46,-1.44,32.35
0.1,-11.4,-1.73,32.32
-1.73,-5.61,-4.57,32.34
0.43,-6.5,-5.5,32.3
-1.19,-9.98,-1.2,32.27
-1.25,-11.02,-0.38,32.32
1.23,-11.12,-1.79,32.29
-0.17,-5.95,-6.04,32.29
-1.57,-5.7,-3.24,32.29
-2.2,-10.17,-0.47,32.3
-0.67,-13.0,0.45,32.33
-0.3,-10.34,-2.68,32.31
0.6,-7.7,-4.44,32.34
0.56,-8.59,-3.03,32.3
-1.46,-11.51,0.06,32.32
-0.57,-12.59,-2.12,32.34
-1.76,-8.78,-4.39,32.33
-0.22,-5.92,-5.54,32.32
-0.92,-8.55,-2.18,32.3
-0.46,-11.64,-0.33,32.32
-0.17,-12.49,-2.13,32.34
-2.31,-8.43,-3.38,32.32
0.75,-7.16,-6.34,32.31
0.88,-10.09,-3.0,32.27
-0.06,-11.65,-0.62,32.3
0.24,-12.25,-2.08,32.35
-2.61,-7.37,-6.09,32.34
-1.85,-6.49,-7.19,32.32
0.11,-10.33,-3.42,32.31
-1.01,-11.5,-1.42,32.28
-1.49,-11.43,-4.46,32.31
-0.7,-10.98,-3.1,32.34
-0.87,-11.92,-2.05,32.32
-1.13,-11.63,-2.01,32.31
-3.41,-9.57,-5.19,32.34
-2.91,-7.67,-6.22,32.31
0.12,-8.76,-4.27,32.32
-1.33,-12.78,-0.88,32.26
-2.9,-12.48,-1.0,32.29
-2.62,-8.76,-5.52,32.29
-0.47,-7.54,-8.55,32.31
-0.31,-9.25,-4.26,32.3
-1.71,-11.26,-0.73,32.33
-1.8,-13.22,-2.25,32.28
-2.23,-7.48,-6.73,32.31
-1.59,-8.02,-7.53,32.28
1.47,-9.04,-4.14,32.27
-0.56,-11.9,-1.91,32.27
-2.94,-10.04,-1.66,32.3
-3.19,-8.06,-7.12,32.33
-0.17,-11.94,-1.42,32.3
-1.11,-10.42,0.15,32.32
-3.69,-5.53,-4.69,32.32
-3.9,-5.49,-7.56,32.32
-2.2,-11.8,-2.06,32.27
-0.1,-10.39,-1.9,32.35
-3.85,-10.01,-0.58,32.3
-4.19,-6.01,-3.62,32.27
-2.91,-5.22,-7.11,32.32
-2.09,-10.31,-1.67,32.3
-0.04,-10.29,-0.93,32.33
-2.01,-9.53,-1.25,32.35
-2.42,-5.12,-4.89,32.32
-2.9,-5.84,-7.42,32.34
-2.22,-8.57,-2.98,32.28
-1.24,-10.97,-1.77,32.3
-1.47,-9.42,-1.3,32.34
-2.85,-5.31,-6.16,32.31
-2.28,-5.75,-6.58,32.33
-2.52,-11.83,-0.73,32.34
-1.95,-7.27,-4.46,32.31
-2.65,-6.35,-8.25,32.28
-1.66,-8.93,-4.04,32.32
-0.31,-12.39,-2.46,32.33
-1.32,-10.39,-0.61,32.36
-0.85,-7.64,-6.72,32.3
-3.8,-3.75,-7.43,32.31
-2.73,-7.67,-5.28,32.31
0.85,-12.25,-1.86,32.29
-1.85,-9.9,-0.29,32.32
-2.29,-5.85,-4.77,32.29
-2.95,-5.25,-7.42,32.34
-1.87,-8.69,-3.48,32.26
-0.91,-11.71,-1.5,32.32
-0.65,-10.29,-0.64,32.32
-1.86,-7.3,-3.31,32.3
-3.89,-4.57,-6.96,32.33
-1.58,-9.66,-2.57,32.29
-0.03,-12.07,-2.24,32.3
-0.86,-11.59,-0.03,32.3
-2.13,-8.94,-2.32,32.27
-2.96,-5.08,-6.96,32.31
-3.25,-6.61,-7.71,32.32
-1.58,-11.12,-1.4,32.28
-1.09,-11.22,0.08,32.3
-2.39,-8.46,-2.73,32.29
-2.61,-3.49,-7.77,32.28
-1.4,-8.18,-5.83,32.33
-0.68,-10.57,-0.96,32.34
-1.18,-11.48,0.08,32.29
-0.02,-8.88,-1.33,32.33
0.03,-4.6,-7.8,32.34
-2.8,-6.92,-4.58,32.29
-1.06,-10.46,0.25,32.29
1.21,-12.45,0.23,32.33
-1.27,-7.09,-2.55,32.32
-0.56,-4.41,-5.99,32.31
0.63,-13.75,-0.94,32.32
-0.19,-12.73,-0.05,32.28
0.94,-8.1,-3.47,32.29
1.61,-5.09,-7.04,32.34
0.4,-8.11,-2.89,32.29
0.23,-12.16,1.14,32.3
-0.9,-13.62,-0.35,32.28
0.66,-8.18,-2.14,32.29
1.67,-6.46,-6.33,32.33
0.42,-8.15,-1.07,32.28
-0.23,-13.29,1.44,32.3
-0.01,-13.37,-1.66,32.26
0.17,-7.14,-3.9,32.29
1.35,-7.49,-6.77,32.29
1.28,-8.48,-2.98,32.33
0.21,-13.64,1.13,32.31
-0.15,-11.68,-1.52,32.29
0.23,-9.1,-4.91,32.27
0.89,-6.33,-5.84,32.31
-1.93,-6.94,-5.78,32.28
-1.75,-6.82,-8.14,32.33
-2.92,-9.03,-6.07,32.27
-1.79,-10.18,-2.77,32.33
-1.48,-11.83,-0.22,32.34
-3.02,-10.2,-2.32,32.31
-3.9,-6.61,-7.53,32.29
-2.72,-7.25,-7.69,32.3
0.51,-10.38,-3.97,32.31
-2.18,-10.89,0.34,32.31
-2.46,-10.12,-0.69,32.31
-1.75,-6.49,-8.89,32.27
-2.63,-6.98,-7.57,32.28
0.49,-9.96,-2.94,32.3
-1.22,-11.85,0.56,32.34
-3.04,-7.13,-3.01,32.29
-3.57,-4.76,-8.59,32.31
-2.1,-8.09,-5.17,32.32
-0.74,-11.03,-2.19,32.29
-2.57,-11.68,0.93,32.34
-2.53,-8.49,-2.59,32.34
-2.89,-4.59,-8.14,32.33
-2.47,-8.67,-4.73,32.31
-1.1,-11.35,-2.03,32.27
-0.88,-10.08,0.12,32.29
-2.14,-9.12,-2.79,32.3
-2.56,-4.72,-6.26,32.28
-2.94,-7.56,-5.34,32.31
-2.01,-11.42,-2.09,32.29
-1.24,-9.52,-0.62,32.29
-2.13,-8.2,-4.03,32.32
-2.09,-4.02,-7.09,32.29
-3.04,-7.6,-5.4,32.34
-0.84,-10.32,-1.36,32.27
-0.89,-11.61,-1.73,32.3
-1.09,-7.37,-4.14,32.27
-1.7,-4.85,-6.54,32.3
-2.49,-8.68,-4.59,32.27
-1.29,-12.12,-0.98,32.32
0.5,-12.18,-3.2,32.3
-0.41,-8.86,-3.39,32.31
-0.22,-5.49,-6.53,32.33
-0.95,-9.19,-4.96,32.27
-0.29,-12.49,-2.58,32.27
-1.28,-11.16,-1.24,32.3
-0.51,-8.35,-4.76,32.33
-1.53,-4.46,-7.94,32.27
-2.26,-7.31,-5.42,32.32
0.84,-11.95,-1.51,32.3
-0.7,-11.98,-1.05,32.32
-1.37,-8.0,-2.07,32.32
1.13,-6.06,-7.26,32.27
-0.82,-8.4,-3.84,32.32
0.62,-12.98,0.05,32.31
0.85,-13.09,-0.33,32.3
-1.05,-7.62,-2.72,32.33
-0.3,-5.01,-6.16,32.3
-2.27,-9.37,-1.81,32.33
-0.79,-12.29,-0.68,32.3
-0.04,-12.1,0.14,32.34
-0.16,-8.1,-3.17,32.26
-3.21,-4.56,-5.83,32.29
-3.75,-8.35,-4.33,32.32
-1.98,-11.47,-0.32,32.3
-2.06,-11.88,-1.51,32.29
-2.4,-7.57,-3.41,32.3
-1.83,-4.47,-7.99,32.3
-3.54,-6.3,-7.01,32.29
-2.07,-9.77,-2.37,32.3
-0.22,-11.72,-0.98,32.29
-2.01,-10.36,-0.15,32.3
-1.3,-5.58,-6.18,32.28
-4.13,-5.63,-6.47,32.31
-2.0,-10.43,-2.7,32.31
-1.37,-11.38,-0.82,32.31
-2.26,-10.68,-0.28,32.26
-1.7,-6.91,-5.88,32.31
-3.52,-4.68,-7.69,32.27
-2.44,-11.15,-2.63,32.31
-0.83,-11.43,-0.82,32.33
-3.61,-10.35,0.03,32.34
-0.91,-3.96,-6.98,32.31
-3.89,-6.12,-8.72,32.3
-1.62,-9.96,-2.23,32.3
-0.7,-11.68,-1.7,32.34
-1.18,-9.49,0.45,32.29
-2.48,-4.68,-6.95,32.3
-4.13,-6.33,-6.08,32.27
-0.86,-10.07,-2.7,32.27
-0.11,-12.29,-1.8,32.26
-2.45,-8.27,-1.84,32.3
-1.7,-5.63,-5.86,32.32
-4.11,-6.96,-5.13,32.27
-2.07,-10.99,-2.32,32.24
-1.38,-12.23,-0.98,32.29
-1.68,-10.83,-1.37,32.32
-0.01,-5.63,-5.65,32.31
-3.96,-5.61,-6.54,32.31
-1.86,-11.38,-1.78,32.31
0.07,-11.92,-1.02,32.26
-0.57,-9.89,-1.41,32.28
0.12,-5.03,-5.9,32.31
-2.32,-6.22,-6.1,32.26
-0.04,-10.21,-2.2,32.3
-0.26,-12.45,-1.81,32.27
-1.44,-8.0,-2.37,32.29
-0.17,-5.28,-7.36,32.36
-2.79,-6.5,-4.99,32.29
-2.92,-10.1,-2.31,32.28
-1.59,-12.16,-1.25,32.29
0.72,-8.86,-3.59,32.3
1.2,-6.63,-7.14,32.29
-1.61,-5.85,-4.53,32.28
-1.61,-11.78,-0.56,32.3
0.14,-12.49,-0.45,32.3
0.56,-9.38,-1.68,32.32
0.92,-7.64,-5.89,32.33
-0.5,-6.02,-4.95,32.33
-1.05,-11.95,0.07,32.3
-0.45,-12.74,-1.01,32.27
-0.64,-11.04,-1.54,32.32
1.58,-7.41,-5.64,32.34
-0.6,-6.79,-3.77,32.3
-0.03,-12.89,-1.33,32.3
-0.74,-13.3,-0.76,32.3
1.37,-10.37,-2.03,32.29
1.23,-6.09,-5.45,32.31
0.92,-7.43,-3.25,32.31
-0.01,-13.02,-0.66,32.34
1.98,-12.07,-0.15,32.27
1.28,-8.5,-3.72,32.33
0.94,-4.87,-5.48,32.29
0.61,-7.96,-2.85,32.29
0.89,-12.07,0.6,32.27
-2.17,-11.81,-1.28,32.31
-2.59,-8.24,-2.74,32.35
-3.48,-4.95,-8.31,32.33
-4.81,-6.24,-6.09,32.28
-0.79,-10.98,-4.49,32.29
-0.65,-12.61,-1.25,32.31
-3.19,-8.3,-2.96,32.27
-1.68,-5.57,-8.19,32.3
-4.64,-6.44,-6.75,32.3
-2.0,-11.79,-2.64,32.31
0.34,-12.72,-2.55,32.32
-0.6,-9.25,-1.87,32.34
-1.09,-6.78,-6.77,32.37
-4.55,-7.22,-6.79,32.33
-1.6,-11.72,-3.93,32.31
-0.02,-12.5,-2.07,32.31
-0.85,-8.55,-2.64,32.32
-1.8,-4.4,-8.02,32.29
-4.06,-7.54,-6.14,32.32
-2.49,-11.04,-1.55,32.31
-1.41,-12.5,-0.77,32.31
0.52,-9.48,-2.14,32.3
-1.95,-4.94,-7.23,32.32
-4.57,-4.96,-8.55,32.26
-1.19,-12.06,-3.86,32.3
0.56,-11.66,-2.54,32.29
-2.48,-11.03,-0.57,32.33
-2.14,-6.89,-5.08,32.32
-3.0,-7.1,-4.12,32.3
-1.93,-8.16,-3.73,32.37
0.53,-12.08,-1.51,32.27
-2.49,-10.01,1.18,32.28
-2.42,-7.63,-3.11,32.26
-4.13,-4.17,-8.59,32.3
-2.51,-10.01,-3.66,32.3
-0.02,-11.42,-1.47,32.31
-1.13,-11.0,0.12,32.28
0.53,-6.14,-5.0,32.34
-4.63,-7.85,-7.81,32.29
-2.18,-7.3,-6.21,32.31
0.2,-11.29,-4.1,32.29
-2.05,-11.54,0.09,32.3
-4.06,-9.56,-2.52,32.3
-2.62,-7.25,-7.6,32.28
-3.27,-8.02,-6.22,32.32
-1.46,-10.13,-2.8,32.32
-0.85,-11.14,-0.79,32.29
-3.08,-9.58,-3.06,32.29
-4.53,-6.94,-6.89,32.32
-3.67,-6.18,-6.56,32.33
2.23,-11.03,-4.72,32.32
-1.37,-12.31,0.41,32.31
-1.8,-8.37,-1.19,32.33
0.31,-9.32,-6.75,32.29
-1.05,-8.53,-6.55,32.3
-0.18,-10.69,-2.84,32.3
0.59,-12.09,-0.17,32.29
-0.23,-5.86,-6.98,32.33
-1.71,-6.6,-6.6,32.25
-0.26,-9.83,-4.06,32.28
1.73,-12.08,-0.24,32.29
1.16,-10.86,-0.32,32.29
-0.56,-7.3,-5.55,32.3
-2.04,-5.72,-6.18,32.31
0.66,-11.25,-3.25,32.28
0.92,-12.63,0.41,32.31
-1.63,-9.72,-0.64,32.31
-1.3,-7.62,-5.77,32.31
-2.79,-5.25,-5.92,32.3
-0.93,-10.09,-4.19,32.31
0.34,-12.45,-1.55,32.31
-2.98,-9.45,0.43,32.31
1.05,-7.05,-5.02,32.29
-1.21,-6.42,-8.13,32.3
-2.64,-9.62,-2.09,32.28
0.73,-11.46,-1.14,32.24
-0.04,-9.39,-1.93,32.32
-2.0,-4.72,-5.42,32.3
-4.06,-6.71,-5.1,32.32
-0.53,-9.93,-2.24,32.34
0.73,-10.84,-0.85,32.28
-3.11,-10.45,-0.16,32.27
-2.79,-6.02,-3.29,32.36
-2.37,-6.26,-5.25,32.26
-0.24,-11.14,-2.44,32.31
-1.02,-11.83,0.14,32.29
-1.42,-8.33,-2.49,32.29
0.95,-5.12,-6.37,32.28
-2.96,-6.01,-3.76,32.28
-1.72,-12.27,-1.37,32.27
1.56,-11.46,-2.0,32.32
-0.41,-8.17,-2.42,32.34
-0.48,-4.7,-5.97,32.28
-3.13,-7.03,-5.32,32.29
0.73,-10.65,-2.53,32.31
0.85,-11.1,-0.83,32.34
-2.27,-9.97,-1.29,32.28
-0.36,-5.73,-6.11,32.33
-2.15,-6.17,-6.22,32.27
0.2,-11.21,-1.78,32.29
0.29,-12.68,-0.54,32.28
-2.61,-9.39,-0.37,32.28
0.92,-5.88,-6.21,32.32
-2.51,-6.91,-5.48,32.34
-3.0,-10.68,-0.67,32.3
-1.18,-13.25,-0.5,32.32
-1.11,-8.11,-2.66,32.3
-2.35,-5.07,-5.54,32.27
-2.27,-6.16,-5.47,32.28
-1.43,-11.15,-0.06,32.3
-1.12,-12.41,-1.1,32.34
-1.26,-7.58,-2.92,32.27
0.55,-5.25,-5.88,32.33
-2.46,-6.91,-3.68,32.32
-2.23,-11.29,-0.8,32.29
-1.2,-13.09,0.38,32.27
0.37,-8.69,-1.95,32.31
0.25,-5.23,-5.86,32.29
-3.3,-6.39,-3.96,32.28
-0.92,-12.24,-1.01,32.33
-0.59,-12.0,-0.51,32.31
-3.22,-7.12,-2.19,32.32
-1.17,-4.2,-7.75,32.29
-1.83,-7.25,-5.35,32.32
-1.77,-11.76,-0.59,32.29
-1.45,-11.76,-0.25,32.32
0.09,-8.8,-1.45,32.31
0.73,-7.86,-2.74,32.32
-0.45,-5.28,-7.3,32.3
-0.6,-10.41,-2.8,32.29
-0.39,-11.52,-1.31,32.26
0.77,-11.32,-2.52,32.29
-0.1,-5.58,-4.83,32.3
-2.17,-4.19,-6.94,32.27
0.13,-7.58,-5.46,32.35
1.49,-5.18,-5.76,32.28
0.52,-7.77,-2.62,32.27
-0.29,-13.35,0.26,32.28
-1.4,-12.57,-0.1,32.29
-0.61,-8.95,-1.71,32.29
1.38,-6.57,-5.57,32.27
-1.76,-7.52,-4.03,32.25
-1.91,-12.06,0.04,32.3
-0.99,-13.11,-0.78,32.31
-0.48,-7.28,-4.2,32.26
0.52,-5.48,-7.25,32.28
1.23,-8.35,-3.31,32.31
0.53,-11.44,-0.13,32.28
-0.64,-12.78,-1.74,32.32
0.7,-7.59,-3.49,32.3
2.04,-5.81,-5.89,32.28
0.79,-8.62,-3.28,32.3
-0.04,-11.55,-0.82,32.34
-0.53,-11.75,0.51,32.26
-1.66,-13.26,0.29,32.27
-2.46,-10.09,-3.4,32.26
-0.12,-7.87,-5.4,32.27
0.72,-7.52,-7.08,32.32
-0.27,-10.23,-0.2,32.29
1.11,-13.42,-1.94,32.3
-2.11,-9.34,-4.83,32.28
-2.26,-6.65,-5.1,32.29
0.68,-7.8,-6.55,32.27
-1.01,-11.03,-1.26,32.27
-3.35,-13.58,-1.22,32.28
-2.87,-10.37,-5.31,32.26
-0.96,-8.11,-6.95,32.27
-0.22,-7.81,-4.36,32.27
-1.23,-12.71,-2.55,32.31
-2.67,-11.74,-0.03,32.3
-0.6,-12.52,-4.24,32.24
-1.3,-6.35,-6.61,32.31
-3.43,-12.57,-1.63,32.27
-2.47,-5.95,-7.98,32.31
-2.67,-7.46,-7.5,32.25
-0.14,-10.61,-4.06,32.27
-1.34,-9.62,-0.05,32.25
-2.43,-11.23,-1.41,32.27
-1.12,-6.4,-7.54,32.26
-4.81,-8.55,-5.41,32.29
1.27,-10.01,-5.04,32.28
-1.16,-11.73,-0.07,32.27
-2.12,-10.75,-1.38,32.25
-2.15,-8.2,-6.04,32.25
-2.76,-8.96,-5.92,32.27
1.1,-10.55,-4.07,32.22
0.24,-11.78,-0.15,32.3
-1.8,-9.34,-1.58,32.27
-1.09,-8.06,-6.44,32.3
-3.12,-7.99,-4.55,32.28
-0.88,-9.73,-3.11,32.29
-1.48,-11.33,-3.86,32.25
0.71,-11.89,-1.04,32.25
-1.26,-10.7,0.07,32.26
-1.13,-7.36,-4.41,32.27
-2.89,-6.03,-7.58,32.23
-2.16,-9.82,-3.4,32.27
-0.66,-12.19,-1.39,32.28
-2.11,-10.1,-0.47,32.25
-1.76,-8.32,-3.1,32.28
-3.33,-6.34,-7.75,32.27
-1.7,-9.47,-2.37,32.27
1.6,-12.92,-2.06,32.25
-2.48,-9.19,0.65,32.3
-4.12,-6.66,-3.46,32.28
-3.35,-7.32,-6.76,32.27
-4.16,-11.41,-3.28,32.27
-2.01,-10.52,-2.87,32.3
-1.98,-10.86,-2.05,32.27
-3.34,-5.99,-4.96,32.24
-5.46,-6.18,-7.34,32.28
-2.18,-10.52,-4.2,32.31
-0.57,-11.29,-2.41,32.29
-1.03,-11.57,-2.03,32.23
-2.51,-10.57,-1.8,32.25
-2.72,-6.76,-7.16,32.26
-2.12,-8.3,-6.45,32.28
1.02,-11.36,-3.16,32.24
-0.19,-11.56,-0.8,32.25
-0.44,-9.01,-1.97,32.29
-3.64,-6.12,-7.5,32.25
-2.83,-7.08,-4.63,32.3
1.07,-12.45,-3.58,32.3
-0.13,-11.28,0.71,32.29
0.64,-9.31,-3.44,32.24
-1.81,-5.18,-8.32,32.29
-1.2,-8.86,-5.98,32.28
1.51,-12.03,-1.69,32.29
0.79,-11.74,-0.79,32.29
-1.36,-7.37,-5.24,32.31
-4.33,-8.81,-4.07,32.25
-1.25,-12.73,-2.06,32.27
-1.15,-11.5,-3.34,32.3
-1.91,-8.5,-3.39,32.28
-0.26,-6.59,-6.64,32.26
-3.55,-7.43,-4.53,32.26
-1.38,-12.21,-2.22,32.26
-0.41,-12.03,-2.91,32.24
-2.73,-7.48,-3.08,32.26
-0.14,-5.51,-7.56,32.29
-3.91,-7.01,-4.8,32.24
-1.56,-12.37,-1.03,32.24
-1.1,-12.64,-1.62,32.25
-0.94,-6.39,-4.5,32.25
-0.81,-5.57,-7.6,32.25
-3.74,-7.17,-2.53,32.27
0.33,-12.61,-1.32,32.24
-0.02,-12.26,-1.99,32.26
-0.78,-6.73,-5.8,32.27
-2.95,-8.26,-4.42,32.36
-1.3,-11.74,-0.71,32.27
1.36,-11.45,-0.01,32.25
0.06,-9.48,-1.87,32.3
-0.54,-3.66,-7.8,32.24
-0.05,-7.95,-3.05,32.33
-0.1,-11.71,-0.83,32.27
0.46,-10.8,-0.44,32.25
-0.17,-8.43,-1.72,32.28
-0.57,-3.85,-6.92,32.3
-1.83,-7.27,-4.33,32.26
-2.0,-10.72,0.33,32.31
-0.35,-11.91,-0.02,32.24
0.05,-7.38,-3.25,32.28
-1.55,-3.46,-7.15,32.32
-1.78,-7.47,-1.81,32.29
-0.73,-13.13,-1.5,32.25
-0.33,-10.34,-1.36,32.26
0.77,-8.16,-2.43,32.27
-0.21,-5.02,-5.28,32.24
-3.41,-8.0,-1.88,32.28
-0.55,-13.29,-1.37,32.27
1.04,-11.8,-0.68,32.24
-0.97,-8.01,-2.33,32.26
-1.02,-3.81,-6.43,32.28
-3.31,-8.44,-4.36,32.25
-0.95,-10.57,-0.16,32.29
-0.09,-12.11,-0.18,32.28
-0.35,-7.8,-2.27,32.3
0.74,-4.47,-6.65,32.31
-1.93,-8.11,-2.6,32.32
0.18,-11.24,-0.51,32.29
1.76,-11.55,-1.93,32.26
0.35,-5.51,-3.48,32.3
0.35,-5.23,-6.14,32.26
-2.33,-8.16,-2.56,32.28
0.02,-11.62,-0.85,32.2
1.0,-11.3,0.19,32.29
0.91,-12.75,-0.61,32.27
-0.95,-11.41,-0.82,32.26
-1.97,-9.99,-4.65,32.28
0.47,-6.72,-5.6,32.27
2.1,-9.09,-4.66,32.27
0.37,-11.86,-1.13,32.25
-0.91,-10.6,-1.33,32.27
-1.47,-9.62,-5.04,32.23
0.37,-7.06,-6.19,32.24
0.8,-9.5,-5.71,32.24
0.21,-11.34,-1.53,32.31
-1.1,-11.14,-1.56,32.26
-2.5,-9.38,-5.89,32.24
-0.92,-6.99,-5.66,32.24
0.28,-10.21,-4.17,32.34
-0.43,-11.6,-0.1,32.22
-2.72,-12.93,-1.37,32.24
-2.77,-8.86,-5.11,32.27
-0.85,-8.41,-6.18,32.24
-0.88,-9.0,-4.39,32.3
-0.62,-10.42,-1.4,32.22
-1.77,-11.23,-2.28,32.25
-2.64,-9.46,-3.2,32.27
-0.45,-8.25,-4.95,32.3
0.15,-10.16,-3.07,32.27
-1.81,-10.73,0.38,32.27
0.45,-13.26,-0.59,32.29
-1.42,-11.25,-3.53,32.26
-1.34,-7.51,-5.64,32.27
1.92,-6.02,-7.5,32.27
0.43,-9.81,-1.07,32.25
-3.43,-13.05,0.19,32.24
-1.56,-11.58,-5.15,32.24
-1.23,-5.66,-6.69,32.21
-0.57,-7.4,-4.81,32.23
-1.39,-11.95,-1.16,32.26
-2.89,-12.67,0.05,32.24
-1.58,-9.47,-4.79,32.28
-2.37,-7.64,-5.36,32.3
-0.91,-6.33,-4.87,32.23
-2.11,-11.4,-1.14,32.28
-0.89,-12.64,1.23,32.27
-0.83,-10.94,-3.31,32.23
-1.7,-7.42,-5.34,32.2
2.21,-6.35,-5.68,32.26
0.07,-11.2,0.17,32.25
-1.53,-10.93,0.73,32.27
-0.85,-10.42,-4.79,32.27
-0.5,-7.37,-5.88,32.22
1.47,-7.36,-4.61,32.23
0.37,-11.67,-0.6,32.26
-0.17,-11.92,-0.28,32.25
-1.63,-11.12,-2.63,32.25
0.42,-8.31,-5.45,32.25
1.12,-8.85,-5.16,32.22
0.72,-10.94,-0.28,32.18
0.03,-12.47,0.08,32.29
2.19,-9.3,-2.45,32.26
0.52,-13.29,0.96,32.27
-0.38,-9.99,-2.05,32.28
0.4,-8.76,-4.38,32.25
1.07,-7.8,-5.14,32.28
1.14,-8.69,-2.63,32.22
-0.13,-13.07,-0.24,32.29
1.01,-11.2,-2.78,32.23
0.89,-7.64,-5.2,32.22
0.59,-6.72,-5.18,32.27
-0.04,-10.66,-0.52,32.25
-1.11,-12.05,-1.0,32.26
-0.87,-12.14,-4.99,32.27
-1.82,-7.61,-6.31,32.21
1.69,-5.75,-7.25,32.24
-0.82,-10.39,-2.35,32.27
-1.66,-11.95,0.48,32.27
1.36,-11.21,-4.61,32.26
-2.23,-8.13,-5.39,32.23
0.37,-6.17,-4.39,32.28
1.23,-11.02,-3.03,32.27
-2.46,-11.58,0.61,32.27
-2.92,-11.13,-3.1,32.24
-1.58,-7.66,-5.82,32.22
-0.49,-6.84,-5.79,32.29
-0.35,-11.49,-2.7,32.27
-2.25,-11.63,1.22,32.23
-2.07,-11.06,-4.21,32.22
-0.64,-7.1,-7.0,32.24
3.13,-6.25,-6.06,32.2
0.84,-10.67,-2.65,32.28
-1.23,-9.96,-0.15,32.27
0.84,-11.23,-4.75,32.22
0.32,-7.84,-5.46,32.24
0.65,-7.48,-5.16,32.24
-0.26,-9.96,-0.85,32.24
-2.18,-11.69,-0.37,32.27
-0.86,-11.68,-3.07,32.19
2.23,-12.56,-3.88,32.22
-0.21,-10.72,-0.75,32.28
-1.75,-10.94,-0.99,32.24
0.03,-7.12,-7.52,32.22
-3.09,-6.41,-6.68,32.27
1.07,-11.65,-4.41,32.29
-0.66,-10.73,0.24,32.24
-1.86,-10.62,-1.2,32.26
-1.61,-5.58,-9.09,32.24
-3.48,-7.39,-7.5,32.23
1.32,-10.87,-2.49,32.24
-0.3,-11.6,-0.65,32.24
-3.03,-9.16,-1.68,32.25
-2.31,-6.18,-7.14,32.27
-1.61,-9.55,-5.61,32.27
2.75,-12.36,-2.78,32.25
-1.08,-10.73,-0.44,32.25
-1.61,-9.89,-1.59,32.24
-2.44,-6.28,-7.74,32.19
-1.95,-6.95,-4.79,32.2
1.3,-6.77,-7.02,32.24
0.44,-6.18,-5.53,32.26
-1.0,-9.02,-1.38,32.28
-0.75,-11.57,-2.79,32.24
-2.32,-8.32,-3.93,32.22
-1.03,-7.72,-4.08,32.25
1.63,-7.25,-4.91,32.23
-0.41,-11.18,-1.55,32.19
-1.73,-12.36,-0.25,32.25
-3.84,-10.29,-3.45,32.22
-1.43,-7.57,-5.36,32.24
1.98,-8.63,-5.03,32.25
0.38,-11.5,-0.29,32.24
-1.25,-12.28,-0.57,32.22
-1.75,-9.78,-3.69,32.21
-0.12,-5.78,-6.21,32.23
1.21,-7.71,-4.99,32.24
-0.37,-11.87,-1.53,32.21
-1.31,-12.27,-1.47,32.24
-0.91,-9.66,-5.26,32.24
-0.62,-6.98,-8.19,32.23
-0.36,-7.01,-4.58,32.23
-1.99,-10.38,-0.66,32.23
-1.02,-12.09,-2.19,32.23
-4.2,-9.45,-5.57,32.21
-0.62,-7.3,-4.91,32.25
1.92,-9.07,-4.89,32.26
-1.05,-11.29,-0.41,32.25
-2.26,-12.36,-1.41,32.23
-3.14,-9.21,-4.61,32.23
-0.42,-6.99,-6.34,32.22
1.56,-8.08,-4.65,32.22
-0.83,-10.72,0.68,32.28
-2.3,-14.07,-0.55,32.24
-2.63,-10.25,-3.08,32.24
1.02,-7.24,-7.96,32.24
0.67,-8.16,-4.78,32.24
-1.57,-11.47,-0.14,32.2
-1.16,-12.2,-0.5,32.23
-1.45,-9.37,-7.15,32.24
0.2,-5.88,-7.2,32.24
1.94,-8.31,-5.22,32.22
0.96,-11.21,-0.02,32.2
-0.03,-12.13,-0.6,32.27
-2.3,-9.11,-4.98,32.22
1.27,-7.12,-7.62,32.22
1.46,-8.14,-4.49,32.24
-0.91,-10.78,0.96,32.23
-0.97,-12.86,-2.6,32.2
-2.43,-9.37,-5.96,32.26
-1.19,-7.66,-4.9,32.27
1.67,-10.2,-3.45,32.22
-0.05,-12.02,-0.38,32.24
-2.78,-11.2,-1.07,32.24
-1.51,-8.91,-5.8,32.24
1.14,-8.55,-6.04,32.23
2.46,-10.08,-3.04,32.23
-0.21,-10.85,-0.34,32.25
-0.26,-10.58,-0.69,32.2
-3.67,-7.64,-2.19,32.24
-4.89,-5.35,-6.71,32.24
-2.62,-8.36,-4.2,32.26
-0.79,-11.94,-1.61,32.21
-2.35,-10.84,-0.15,32.21
-1.23,-7.51,-1.29,32.25
-1.96,-5.71,-7.83,32.23
-4.11,-7.21,-3.63,32.24
-0.68,-12.0,-1.96,32.19
1.68,-11.25,-0.46,32.2
-0.6,-7.26,-2.37,32.25
-4.19,-5.53,-6.9,32.22
-2.12,-7.76,-5.08,32.21
-0.11,-10.92,-1.87,32.22
-1.66,-10.67,-0.24,32.18
-1.31,-6.88,-2.11,32.2
-3.46,-4.89,-8.2,32.2
-4.24,-6.76,-7.76,32.2
0.67,-9.01,-4.33,32.22
1.53,-11.62,-2.11,32.16
-2.47,-12.38,-0.58,32.2
-1.11,-8.77,-5.41,32.25
-3.29,-6.76,-8.8,32.22
-0.29,-8.77,-5.54,32.19
-2.01,-11.21,-1.44,32.23
-2.03,-10.97,-0.56,32.23
-1.63,-7.41,-5.92,32.26
-5.28,-6.63,-7.75,32.2
0.41,-8.99,-4.12,32.22
0.22,-12.33,0.7,32.21
-1.46,-10.82,-0.12,32.24
-3.37,-7.89,-6.51,32.21
-2.94,-7.58,-6.15,32.23
1.8,-9.95,-5.01,32.21
-0.73,-9.05,-2.66,32.22
-2.03,-11.7,-0.69,32.22
1.36,-9.22,-2.41,32.22
0.1,-10.7,-0.38,32.23
-1.86,-12.71,-0.82,32.23
-1.48,-8.25,-6.12,32.22
-0.38,-7.67,-6.85,32.19
-0.1,-8.7,-2.92,32.16
0.95,-11.64,-0.34,32.24
-0.75,-12.31,-2.23,32.25
-2.39,-6.89,-4.85,32.21
-0.58,-7.91,-7.34,32.22
1.62,-8.53,-3.03,32.22
0.18,-12.19,-0.25,32.2
-0.93,-11.81,-1.31,32.23
-0.23,-9.34,-4.93,32.22
-0.13,-7.81,-5.98,32.19
0.82,-8.73,-2.68,32.22
0.68,-12.33,-0.45,32.18
-0.5,-12.62,-1.02,32.21
-1.14,-7.77,-5.65,32.18
-1.61,-8.23,-6.39,32.13
-0.22,-9.22,-3.23,32.24
-0.76,-12.06,-0.46,32.19
-2.46,-10.73,-2.54,32.19
-3.1,-8.04,-6.95,32.19
-2.22,-8.44,-6.16,32.21
-0.16,-9.17,-3.6,32.2
-0.84,-12.62,-0.88,32.22
-2.29,-10.91,-2.86,32.21
-2.68,-7.89,-8.53,32.22
-1.05,-8.49,-6.34,32.22
1.19,-10.23,-3.69,32.2
-1.25,-10.63,-1.85,32.24
-2.58,-10.02,-2.65,32.24
-1.27,-8.39,-8.0,32.22
-1.66,-7.29,-5.79,32.24
-0.26,-9.97,-1.99,32.19
-0.44,-11.64,-1.24,32.19
-2.68,-11.13,-2.02,32.2
-2.14,-7.55,-6.98,32.22
-3.22,-7.12,-5.86,32.22
-0.67,-10.65,-2.54,32.18
0.43,-11.89,-1.13,32.2
-1.79,-12.06,-1.29,32.2
-3.26,-6.42,-7.37,32.17
-2.9,-8.49,-6.62,32.24
1.01,-10.17,-3.75,32.22
-1.22,-11.09,-2.25,32.2
-4.05,-10.53,-2.67,32.23
-3.12,-5.51,-7.9,32.2
-2.08,-8.23,-6.66,32.22
-0.74,-10.96,-2.48,32.19
-0.35,-11.05,-1.24,32.15
-3.22,-10.67,-2.75,32.19
-4.69,-5.94,-8.15,32.22
-2.66,-8.83,-7.13,32.19
0.56,-11.47,-3.09,32.2
-1.86,-11.37,-0.01,32.2
-2.62,-7.97,-5.95,32.19
-0.27,-11.06,-2.51,32.17
-0.86,-10.53,-1.59,32.19
-2.5,-8.0,-2.65,32.23
-2.38,-4.96,-7.73,32.2
-4.81,-8.16,-4.75,32.21
-1.11,-10.33,-1.81,32.25
-1.04,-11.48,-1.94,32.18
-2.94,-7.9,-2.33,32.22
-2.94,-5.08,-7.25,32.2
-3.34,-7.4,-5.11,32.2
-0.93,-10.02,-1.2,32.22
-1.82,-12.11,-1.35,32.19
-1.7,-8.5,-2.08,32.2
-3.87,-4.86,-7.48,32.24
-3.02,-7.31,-4.4,32.2
-2.43,-11.76,-0.91,32.2
-1.22,-10.55,0.45,32.2
-0.99,-8.3,-2.98,32.2
-2.77,-4.17,-7.22,32.25
-3.88,-7.47,-3.82,32.22
-1.16,-10.92,-2.19,32.24
-1.03,-10.18,1.23,32.24
-2.56,-8.06,-0.81,32.24
-3.52,-4.46,-6.65,32.19
-3.68,-9.25,-3.81,32.24
0.21,-11.54,-0.96,32.24
0.08,-11.26,-0.47,32.18
-1.06,-7.21,-3.68,32.25
-2.35,-4.54,-5.96,32.16
-2.43,-8.14,-3.28,32.19
-1.59,-11.39,-1.64,32.21
0.9,-10.58,-0.2,32.18
-1.06,-5.99,-2.29,32.19
-1.42,-4.15,-6.55,32.22
-2.93,-5.19,-7.47,32.19
-2.38,-9.67,-3.1,32.2
1.18,-10.55,-0.44,32.19
-0.31,-13.85,-0.06,32.24
-0.44,-12.39,0.27,32.2
-0.67,-9.81,-0.78,32.21
-0.08,-6.01,-5.57,32.2
-1.53,-7.35,-6.01,32.17
-1.46,-11.83,-1.12,32.2
-0.04,-12.99,-0.26,32.24
-0.46,-9.45,-2.37,32.2
0.09,-6.66,-4.65,32.22
-1.04,-7.94,-5.67,32.19
-1.63,-10.5,-0.34,32.19
-0.22,-11.89,-0.02,32.18
1.45,-8.32,-3.28,32.22
0.01,-4.76,-5.66,32.2
-0.91,-6.31,-4.55,32.14
0.62,-10.68,-0.27,32.22
-1.29,-11.39,-0.72,32.2
-1.52,-8.13,-1.27,32.18
0.35,-6.86,-5.32,32.17
-1.06,-6.32,-4.9,32.17
-2.61,-11.08,0.31,32.22
-2.32,-12.47,-0.08,32.16
-2.49,-8.76,-2.23,32.2
-0.07,-5.93,-6.18,32.22
-0.97,-6.7,-4.87,32.15
-2.68,-11.05,1.33,32.21
-1.96,-11.77,-1.35,32.23
0.1,-7.92,-3.73,32.17
0.29,-5.84,-5.78,32.21
-2.18,-6.38,-1.92,32.24
0.12,-12.52,1.14,32.2
-0.96,-11.53,-2.34,32.16
-0.03,-7.97,-2.7,32.23
-0.14,-5.53,-5.89,32.18
-0.7,-6.73,-2.59,32.21
-0.23,-11.7,0.88,32.21
-1.39,-12.23,-1.58,32.21
0.97,-8.21,-3.11,32.2
0.57,-5.26,-6.65,32.2
-0.47,-12.57,-2.18,32.17
0.22,-11.96,-1.68,32.15
-1.81,-7.89,-1.31,32.21
0.12,-5.86,-6.74,32.18
-1.25,-6.81,-5.86,32.16
-0.08,-12.04,-0.32,32.24
1.24,-12.42,-1.31,32.2
-0.07,-7.93,-2.82,32.18
-0.02,-4.71,-7.37,32.2
-1.06,-7.86,-4.92,32.24
0.63,-13.06,-0.79,32.18
0.02,-11.1,-1.23,32.16
-2.41,-8.06,-4.3,32.23
-0.63,-5.83,-7.48,32.19
-1.3,-9.54,-3.92,32.17
1.14,-13.92,-0.64,32.19
-0.86,-12.72,-1.55,32.2
-0.84,-7.79,-3.92,32.19
1.91,-6.61,-6.79,32.21
-2.43,-8.24,-3.91,32.21
-0.76,-12.13,0.53,32.19
1.26,-12.26,-1.89,32.22
-0.69,-7.86,-3.97,32.22
-0.22,-3.88,-5.77,32.21
-2.78,-8.38,-2.49,32.2
0.29,-13.3,0.31,32.21
0.86,-12.12,-1.93,32.19
0.01,-6.82,-5.73,32.19
0.01,-3.61,-6.38,32.18
-1.54,-9.36,-3.97,32.19
-0.83,-12.65,0.36,32.19
-0.64,-12.39,-3.2,32.19
-0.45,-6.69,-5.73,32.19
-0.12,-5.63,-7.0,32.22
-2.88,-9.75,-3.32,32.24
-0.56,-12.25,-0.9,32.17
0.54,-12.0,-2.83,32.19
-1.52,-8.01,-3.92,32.21
-2.01,-11.68,1.14,32.19
-1.41,-9.33,-3.66,32.17
-1.17,-6.31,-8.36,32.18
-2.01,-8.32,-2.95,32.2
1.12,-11.65,-2.67,32.17
0.0,-10.81,-1.29,32.18
-1.37,-7.8,-4.07,32.19
-2.52,-6.34,-7.46,32.25
-2.52,-9.99,-5.2,32.2
-0.05,-12.24,-0.62,32.24
-0.07,-11.5,-0.87,32.18
-1.43,-7.94,-4.82,32.23
-3.56,-5.75,-7.76,32.19
-3.73,-8.85,-2.94,32.19
1.06,-11.09,-4.12,32.21
-0.36,-11.25,-0.22,32.21
-2.91,-10.53,-1.66,32.2
-3.34,-5.4,-7.7,32.19
-4.72,-7.37,-5.39,32.16
0.56,-9.81,-0.71,32.18
-2.09,-8.0,-2.66,32.2
-1.98,-3.83,-6.14,32.19
-4.05,-7.84,-4.85,32.16
-1.6,-11.49,-2.31,32.23
1.28,-11.99,-0.37,32.19
-1.55,-8.35,-2.95,32.19
-1.55,-5.61,-7.48,32.15
-2.78,-8.64,-4.79,32.18
-1.11,-11.75,-2.68,32.21
-0.17,-11.67,-0.08,32.16
-1.51,-9.14,-3.07,32.17
0.17,-5.25,-8.51,32.17
-4.11,-7.09,-5.74,32.18
-1.68,-11.49,-2.42,32.2
1.66,-12.8,-1.63,32.21
-0.03,-9.48,-2.09,32.22
-2.55,-4.61,-6.87,32.19
-3.38,-7.11,-3.73,32.19
0.22,-12.47,-1.24,32.18
-2.19,-11.02,-1.09,32.19
-3.94,-8.13,-6.07,32.16
-3.99,-6.09,-8.04,32.2
-1.54,-9.28,-5.39,32.22
-1.93,-10.96,-0.91,32.23
-3.9,-9.74,-0.51,32.18
-3.73,-8.21,-5.26,32.17
-4.14,-6.2,-8.4,32.16
-3.15,-9.93,-3.94,32.2
-1.36,-10.84,-1.24,32.19
-2.78,-10.62,-0.94,32.2
-4.56,-7.98,-4.24,32.22
-2.97,-6.25,-7.79,32.19
-0.96,-10.28,-5.26,32.18
-0.7,-9.76,-0.16,32.19
-2.23,-10.42,-0.22,32.22
-2.62,-7.81,-7.25,32.17
-3.78,-5.63,-7.22,32.2
0.63,-9.78,-1.8,32.16
-1.73,-11.29,-0.11,32.19
-3.12,-9.15,-2.55,32.21
-2.94,-6.51,-9.28,32.17
-3.14,-7.81,-5.54,32.19
-0.07,-10.29,-1.74,32.21
-0.74,-12.04,-0.22,32.17
-1.66,-9.75,-3.43,32.19
-0.75,-5.71,-9.15,32.24
-2.04,-8.82,-4.31,32.18
1.01,-11.37,-1.9,32.19
0.3,-11.76,0.18,32.17
-0.14,-9.58,-3.98,32.16
-1.69,-4.9,-8.5,32.2
-4.11,-9.28,-4.28,32.22
0.95,-10.74,-2.13,32.21
-0.09,-11.08,-0.38,32.17
-1.59,-8.46,-4.47,32.19
-3.79,-6.21,-7.58,32.18
0.04,-12.08,-0.59,32.19
-2.24,-11.09,-1.28,32.19
-1.14,-7.19,-7.12,32.13
-4.1,-8.1,-6.17,32.19
-0.51,-10.52,-2.94,32.15
0.44,-12.57,-0.74,32.17
-0.83,-11.52,-1.52,32.18
-0.88,-7.78,-7.32,32.17
-2.73,-6.75,-7.32,32.2
0.86,-10.6,-4.07,32.17
0.77,-11.77,-1.3,32.19
-1.46,-10.2,-2.16,32.17
-2.39,-6.59,-8.39,32.22
-4.03,-6.76,-7.3,32.18
-0.36,-11.28,-3.32,32.18
-1.15,-11.61,0.11,32.21
-2.69,-10.63,-1.79,32.19
-3.31,-6.68,-7.01,32.23
-2.92,-7.63,-6.84,32.2
-0.47,-10.77,-3.44,32.16
-0.09,-11.22,-0.67,32.17
-0.59,-10.11,-4.32,32.18
-2.74,-6.21,-8.19,32.19
-3.44,-7.19,-6.13,32.17
-0.85,-10.53,-4.75,32.14
0.44,-10.23,-2.26,32.19
-1.32,-11.9,-2.04,32.21
-1.82,-9.49,-3.92,32.16
-1.8,-7.11,-7.66,32.19
-2.38,-9.56,-5.39,32.15
-0.25,-10.55,-2.01,32.18
-0.34,-11.23,-0.7,32.17
-2.21,-8.91,-4.29,32.16
-3.42,-6.04,-7.78,32.17
-1.83,-9.95,-3.4,32.21
0.53,-11.12,-0.53,32.16
-0.32,-11.63,-0.73,32.12
-1.05,-8.3,-5.39,32.17
0.03,-11.76,-2.76,32.18
-0.62,-8.01,-3.41,32.17
-1.46,-6.23,-6.0,32.16
-3.87,-7.55,-4.6,32.18
-1.06,-11.54,-0.96,32.22
1.39,-12.48,-1.9,32.21
-2.22,-8.76,-3.55,32.19
-0.59,-4.99,-5.23,32.17
-1.61,-7.65,-4.6,32.17
-0.51,-12.05,-0.2,32.19
-0.26,-11.38,-2.01,32.14
-1.41,-8.11,-2.44,32.2
-0.14,-5.52,-6.47,32.2
-3.85,-8.0,-2.68,32.17
-1.08,-12.04,-0.04,32.18
0.02,-12.44,-2.35,32.17
-2.36,-6.56,-5.26,32.19
-2.25,-5.52,-6.15,32.13
-2.33,-7.91,-2.67,32.15
-0.98,-12.34,-0.13,32.18
0.19,-7.38,-4.78,32.19
-1.34,-5.21,-6.56,32.19
-1.19,-7.87,-4.34,32.18
-1.75,-10.74,-1.16,32.16
-2.29,-11.22,-1.86,32.18
-0.7,-9.77,-2.62,32.18
-0.46,-5.87,-7.35,32.21
-3.26,-6.46,-4.87,32.18
-1.88,-10.25,-1.61,32.19
-0.98,-11.49,-1.25,32.17
-1.09,-7.87,-3.93,32.17
-1.11,-4.62,-6.11,32.17
-4.23,-7.41,-3.31,32.19
-2.82,-11.73,-1.08,32.16
-1.26,-11.77,-0.91,32.15
-2.02,-7.94,-4.42,32.17
-2.21,-4.71,-6.34,32.18
-3.16,-7.73,-3.24,32.17
-1.51,-13.3,-0.46,32.12
0.61,-11.47,-0.64,32.21
-0.71,-11.74,-0.79,32.17
-1.58,-9.48,-5.15,32.16
-3.6,-6.93,-6.61,32.14
1.13,-10.24,-4.66,32.11
0.44,-12.35,-0.61,32.17
-1.19,-11.81,-0.91,32.17
-2.16,-9.05,-6.58,32.16
-3.62,-6.71,-7.62,32.17
-0.07,-9.94,-4.89,32.16
0.84,-12.25,-1.64,32.15
-1.7,-10.2,-1.5,32.18
-1.7,-8.0,-5.95,32.21
-4.07,-7.91,-6.57,32.14
-0.81,-10.01,-3.67,32.14
1.19,-11.47,-0.78,32.18
-0.27,-11.38,-1.7,32.17
-2.81,-7.81,-5.62,32.19
-3.1,-7.7,-5.93,32.17
-0.6,-7.27,-3.58,32.17
-0.21,-11.48,-1.19,32.22
-2.84,-12.39,1.03,32.21
-1.02,-9.4,-5.4,32.17
-1.46,-8.42,-7.41,32.14
-0.45,-6.62,-3.69,32.19
0.05,-12.06,-1.07,32.19
-0.77,-12.31,-0.74,32.19
-1.16,-9.2,-6.23,32.21
-1.42,-7.1,-6.73,32.18
0.63,-8.09,-3.95,32.18
0.65,-12.21,-0.44,32.24
-1.61,-11.2,0.68,32.19
-0.46,-9.02,-7.08,32.17
-2.19,-7.01,-6.47,32.22
-1.42,-8.92,-3.15,32.18
-0.67,-11.52,-0.8,32.2
-1.09,-12.17,-1.02,32.18
-1.36,-9.65,-3.16,32.2
0.26,-11.32,-2.08,32.16
-0.92,-9.88,-1.27,32.18
-1.68,-9.44,-4.43,32.15
-2.32,-6.53,-5.81,32.16
-3.43,-7.63,-6.48,32.18
-1.43,-11.71,-2.12,32.15
0.45,-11.13,-1.22,32.2
-2.25,-10.16,-3.09,32.17
-2.14,-6.08,-7.35,32.17
-3.74,-7.1,-6.39,32.17
-1.92,-9.6,-2.32,32.2
0.43,-12.47,-0.9,32.18
-1.38,-9.44,-2.43,32.11
-1.4,-6.9,-6.91,32.19
-3.45,-6.93,-7.15,32.18
-2.88,-9.86,-2.45,32.11
-0.46,-12.73,-1.25,32.19
-2.06,-8.31,-2.79,32.19
-1.45,-6.35,-6.92,32.22
-5.15,-6.56,-5.7,32.16
-3.16,-11.35,-2.81,32.2
-0.08,-12.53,-1.92,32.14
-0.57,-9.66,-2.51,32.18
-1.12,-4.94,-7.07,32.16
-5.61,-6.3,-6.22,32.16
-2.02,-10.95,-1.18,32.16
1.5,-13.1,-1.62,32.2
-0.43,-8.24,-3.46,32.19
-2.38,-4.51,-7.17,32.17
-3.23,-7.51,-5.49,32.18
-1.74,-12.28,-1.28,32.19
0.16,-12.27,-1.4,32.19
-0.96,-8.38,-3.27,32.2
-1.86,-6.58,-5.76,32.17
-3.19,-6.79,-6.4,32.12
-1.46,-11.54,-2.0,32.17
0.02,-12.29,-0.62,32.19
-0.71,-8.58,-2.95,32.17
-1.71,-9.42,-3.49,32.17
-0.67,-7.84,-6.35,32.2
-1.63,-7.32,-6.62,32.16
0.62,-8.81,-1.69,32.2
0.33,-12.59,0.25,32.14
-1.04,-10.54,-1.64,32.24
-1.93,-7.77,-5.7,32.14
-1.14,-7.81,-4.41,32.2
1.32,-9.39,-2.63,32.19
0.34,-12.11,-0.12,32.17
-0.45,-10.45,-1.74,32.17
-3.34,-7.59,-6.49,32.16
-3.68,-7.04,-4.55,32.18
0.59,-10.24,-3.3,32.17
-1.47,-10.98,-0.11,32.19
-2.81,-9.6,-1.65,32.21
-1.99,-7.12,-7.91,32.17
-3.31,-8.59,-4.4,32.16
1.1,-11.64,-3.11,32.19
-2.45,-10.55,-1.92,32.2
-0.67,-11.0,-1.71,32.19
-2.64,-6.82,-3.26,32.18
-1.98,-7.01,-5.88,32.17
-2.03,-5.52,-6.11,32.14
-1.95,-9.1,-2.14,32.19
-1.07,-12.73,-1.13,32.15
-2.03,-9.76,-1.26,32.19
-1.25,-7.07,-5.33,32.17
0.27,-4.67,-7.81,32.17
-3.42,-9.27,-1.39,32.21
-3.68,-12.5,-0.01,32.17
-0.59,-10.27,-2.11,32.2
-0.22,-6.5,-6.09,32.19
-2.36,-4.52,-6.43,32.16
-2.19,-10.0,-1.42,32.15
-1.58,-12.14,-0.97,32.17
-1.73,-10.55,-2.33,32.19
-1.18,-7.26,-4.98,32.19
0.84,-9.11,-0.64,32.18
-0.1,-14.3,-0.38,32.19
-2.14,-10.34,-4.04,32.18
0.32,-6.67,-7.53,32.23
2.15,-7.19,-5.6,32.22
-0.45,-10.4,0.32,32.15
-0.5,-13.91,0.43,32.21
0.07,-9.96,-5.52,32.22
-0.5,-7.39,-5.36,32.16
-0.0,-7.55,-4.59,32.17
-1.36,-10.27,-1.46,32.17
-0.84,-13.18,-0.4,32.14
-0.64,-10.14,-5.51,32.18
-0.61,-7.41,-5.51,32.24
0.84,-7.86,-4.46,32.19
0.32,-11.47,-1.21,32.15
-1.32,-12.1,-1.06,32.15
0.08,-9.53,-5.05,32.18
-0.24,-7.79,-7.07,32.18
-1.36,-6.33,-6.0,32.18
-2.39,-8.96,-0.86,32.22
-0.52,-13.32,-0.32,32.21
0.24,-11.94,-0.78,32.18
-0.62,-8.05,-1.75,32.15
-2.54,-4.8,-7.05,32.19
-4.49,-7.53,-2.24,32.16
-2.2,-11.92,-1.12,32.17
-1.52,-11.42,-1.49,32.19
-1.37,-7.95,-1.51,32.18
-2.51,-4.87,-7.07,32.17
-4.26,-7.06,-3.89,32.17
-3.22,-11.67,-1.3,32.18
-0.32,-11.68,-1.27,32.21
-2.14,-8.77,-2.57,32.19
-2.92,-5.01,-6.51,32.21
-2.21,-7.11,-4.94,32.13
-1.55,-11.32,-1.48,32.17
-2.16,-11.54,-0.45,32.16
-1.09,-8.96,-3.51,32.19
-1.34,-3.83,-7.72,32.17
-3.37,-7.07,-4.9,32.19
-2.4,-11.42,-2.16,32.15
-1.46,-11.09,-1.65,32.15
-1.76,-8.0,-2.77,32.16
-1.8,-4.95,-6.61,32.17
-3.9,-8.9,-4.02,32.18
-1.39,-10.46,-0.28,32.17
-1.47,-11.91,-1.24,32.18
-1.73,-7.23,-5.29,32.18
-2.22,-4.7,-8.57,32.15
-4.09,-7.36,-3.81,32.17
-0.83,-12.23,-1.08,32.18
-0.83,-11.01,-1.87,32.12
-2.28,-7.57,-2.67,32.15
-0.7,-6.85,-5.89,32.16
-3.12,-7.93,-3.39,32.16
-1.47,-12.33,-1.8,32.17
-4.02,-7.97,-1.51,32.23
-1.99,-11.09,-2.13,32.17
0.0,-13.43,-1.29,32.18
-1.51,-8.21,-1.92,32.19
-1.97,-5.32,-6.96,32.16
-3.88,-5.58,-5.25,32.18
-1.53,-11.4,-0.47,32.22
-0.76,-11.7,-1.63,32.17
-2.14,-9.1,-2.21,32.24
-0.64,-5.83,-5.81,32.25
-1.84,-5.9,-5.85,32.18
-3.19,-11.03,-0.78,32.19
-1.93,-11.52,-1.1,32.22
-1.08,-9.08,-3.14,32.17
-0.02,-5.65,-6.93,32.13
-2.4,-5.82,-4.75,32.18
-1.42,-11.55,-0.36,32.19
-1.15,-12.53,-1.11,32.21
-0.51,-8.83,-2.14,32.18
0.67,-7.06,-5.12,32.17
0.11,-6.24,-3.93,32.15
-1.45,-10.87,-0.28,32.14
-1.89,-11.45,0.48,32.16
-0.08,-10.14,-1.2,32.19
-0.28,-6.06,-5.93,32.19
-0.01,-6.5,-4.47,32.16
-1.44,-11.06,0.91,32.16
-1.63,-10.76,-1.24,32.18
1.17,-9.74,-2.78,32.17
0.33,-6.16,-5.09,32.15
-0.31,-6.91,-3.76,32.18
-1.64,-11.04,1.22,32.15
-0.49,-12.04,-1.28,32.16
0.1,-9.01,-2.69,32.2
-0.96,-5.43,-5.15,32.14
-0.32,-6.93,-3.53,32.18
0.11,-11.24,-0.14,32.16
-0.78,-11.97,-0.13,32.16
-1.21,-8.61,-3.56,32.2
0.69,-6.98,-6.1,32.16
0.6,-7.47,-2.96,32.2
-1.32,-11.81,0.38,32.14
-0.39,-12.5,-2.56,32.16
-0.95,-8.12,-4.45,32.17
0.36,-5.98,-5.26,32.15
1.2,-8.96,-3.05,32.14
-0.51,-11.77,0.07,32.2
0.7,-12.08,-1.41,32.17
-1.45,-9.0,-4.44,32.17
0.23,-6.12,-5.47,32.17
2.11,-9.93,-2.68,32.16
-0.67,-11.88,0.6,32.17
-0.46,-12.05,-2.1,32.17
-0.36,-9.28,-5.48,32.18
1.36,-6.08,-5.46,32.19
0.58,-10.01,-3.39,32.18
-0.88,-10.71,0.37,32.15
-0.3,-11.37,-3.23,32.14
1.33,-7.04,-4.48,32.16
0.24,-7.34,-3.22,32.19
-0.62,-11.87,0.03,32.21
-0.33,-12.08,-2.48,32.16
-0.05,-8.42,-4.95,32.2
0.22,-5.33,-6.72,32.22
-2.24,-7.2,-2.84,32.16
-1.05,-12.57,0.61,32.19
-0.58,-11.61,-2.63,32.13
-1.78,-7.24,-5.48,32.14
-0.54,-6.56,-5.97,32.17
-0.9,-7.73,-2.7,32.19
-1.68,-11.98,0.04,32.18
-0.27,-11.99,-3.15,32.18
0.43,-8.32,-4.47,32.16
0.88,-6.73,-5.9,32.15
-0.36,-8.87,-2.3,32.13
-0.09,-12.03,0.28,32.12
-0.11,-12.49,-3.11,32.15
-0.52,-8.04,-6.03,32.19
-0.48,-6.83,-5.33,32.12
0.88,-9.48,-2.57,32.15
0.62,-12.91,0.52,32.18
-1.14,-11.84,-2.98,32.2
-0.45,-7.85,-6.05,32.18
1.11,-7.73,-5.19,32.14
0.15,-9.72,-2.35,32.17
-0.96,-12.42,-0.63,32.16
-0.2,-10.91,-4.43,32.17
-0.95,-8.53,-6.46,32.19
-0.55,-7.69,-5.26,32.19
0.87,-8.93,-2.76,32.19
0.42,-12.7,-0.35,32.17
-0.71,-11.01,-2.68,32.2
-1.12,-8.31,-5.01,32.15
0.15,-7.76,-5.69,32.15
0.72,-9.21,-2.62,32.2
-0.45,-11.62,0.18,32.15
-0.18,-12.45,-3.19,32.13
-1.76,-7.73,-6.34,32.14
-0.7,-7.24,-6.56,32.19
2.08,-9.85,-2.28,32.15
0.1,-11.98,0.34,32.14
-0.7,-11.11,-3.41,32.18
-1.77,-8.63,-6.69,32.14
0.23,-8.42,-7.34,32.15
0.38,-9.88,-2.23,32.16
0.0,-12.7,-0.34,32.18
-0.2,-10.7,-5.13,32.17
-3.71,-7.9,-7.1,32.16
-1.69,-7.41,-5.99,32.15
-0.34,-8.86,-2.32,32.18
-1.24,-12.45,-0.04,32.12
-1.79,-11.5,-3.73,32.16
-2.36,-6.34,-7.28,32.17
-1.46,-8.68,-6.02,32.18
-1.7,-10.05,-1.47,32.12
-1.84,-12.3,-1.92,32.14
-0.21,-11.36,-3.51,32.22
-2.48,-9.07,-6.44,32.16
-1.75,-6.59,-4.6,32.15
0.26,-9.11,-3.12,32.21
-0.96,-11.86,0.25,32.15
-1.39,-11.63,-2.43,32.17
-1.27,-8.81,-5.43,32.17
0.72,-7.92,-5.35,32.14
0.83,-9.32,-2.0,32.21
-0.25,-11.98,-0.23,32.16
-1.04,-11.33,-3.17,32.13
-1.85,-8.2,-5.79,32.17
0.15,-7.45,-5.8,32.17
0.01,-9.67,-2.02,32.19
-1.25,-11.86,0.18,32.19
-1.23,-11.21,-2.47,32.16
-1.88,-7.01,-6.83,32.16
-0.42,-7.58,-5.8,32.14
-1.22,-5.49,-7.64,32.16
-2.88,-6.33,-7.21,32.16
-3.34,-10.34,-1.42,32.14
-0.35,-12.28,-0.9,32.16
-0.72,-10.12,-2.98,32.15
-2.26,-6.91,-6.48,32.18
-3.82,-7.09,-6.04,32.14
-2.95,-10.48,-2.3,32.16
0.19,-11.82,-2.36,32.16
-1.49,-9.89,-4.95,32.15
-2.06,-5.67,-6.34,32.19
-2.79,-7.83,-5.39,32.15
-1.53,-11.05,-2.43,32.19
-0.5,-10.68,-2.13,32.18
-2.6,-7.96,-4.66,32.17
-1.25,-5.28,-6.55,32.14
-3.26,-7.02,-4.65,32.17
-2.83,-11.1,-0.5,32.11
-0.74,-10.97,-2.21,32.13
-2.27,-8.64,-4.34,32.12
-2.58,-6.88,-4.64,32.14
-3.8,-6.49,-4.58,32.15
-3.37,-9.2,-2.99,32.13
-0.75,-11.82,-1.73,32.14
-1.32,-9.35,-1.18,32.12
-2.0,-7.65,-5.71,32.19
-2.76,-5.2,-6.87,32.17
-2.62,-9.38,-1.99,32.14
0.11,-13.64,-1.98,32.19
-1.51,-8.53,-1.88,32.17
-1.54,-7.77,-5.08,32.14
-1.43,-5.89,-6.9,32.15
-2.25,-8.93,-1.69,32.15
-1.99,-11.47,-0.85,32.17
-0.76,-10.11,-2.36,32.12
-1.89,-7.45,-4.97,32.17
-1.57,-5.57,-5.71,32.13
-1.57,-9.45,-2.22,32.12
-0.58,-11.17,-1.01,32.15
0.39,-7.83,-4.59,32.15
0.05,-8.96,-3.27,32.19
0.35,-11.98,0.58,32.16
-0.68,-11.86,-2.53,32.16
-0.53,-7.67,-4.41,32.17
-0.77,-7.63,-5.26,32.15
-0.24,-7.94,-3.47,32.18
0.73,-11.81,-0.1,32.17
0.06,-11.95,-1.38,32.15
-1.12,-8.87,-4.27,32.13
-0.57,-7.32,-4.93,32.19
0.4,-8.0,-4.05,32.14
-0.13,-10.77,0.41,32.14
-0.33,-11.65,-0.7,32.17
-1.28,-9.44,-4.92,32.14
-0.17,-6.8,-5.12,32.15
1.6,-8.29,-3.38,32.15
0.09,-11.71,0.17,32.16
-0.25,-11.84,-1.55,32.16
-3.4,-10.48,-4.36,32.18
-1.85,-8.21,-3.0,32.12
0.57,-12.3,-2.62,32.16
-1.19,-11.02,-2.34,32.11
-1.37,-7.28,-6.93,32.14
-3.79,-8.33,-5.7,32.11
-1.49,-9.71,-3.59,32.14
-1.56,-11.51,-1.91,32.14
-1.1,-10.85,-2.31,32.19
-0.91,-7.38,-6.8,32.15
-3.71,-6.95,-6.24,32.15
-1.44,-10.55,-3.62,32.12
-0.58,-11.36,-2.03,32.18
-2.64,-9.95,-2.79,32.14
-2.12,-7.71,-6.86,32.15
-3.02,-7.61,-5.39,32.15
-2.87,-10.57,-3.08,32.15
-1.05,-10.65,-1.37,32.14
-1.96,-9.57,-4.67,32.18
-3.04,-6.09,-3.47,32.15
-0.55,-11.78,-1.3,32.14
0.19,-12.4,-1.31,32.17
-1.66,-7.75,-2.98,32.18
-1.06,-6.18,-6.52,32.16
-2.04,-6.74,-4.75,32.17
-1.74,-11.23,0.56,32.15
-0.05,-12.24,-1.63,32.11
-0.37,-7.91,-4.03,32.17
-1.57,-6.21,-5.15,32.15
-1.0,-7.52,-3.55,32.14
-0.42,-11.73,0.04,32.14
-0.27,-12.17,-1.4,32.16
-0.91,-8.83,-4.66,32.15
-1.34,-6.36,-5.05,32.14
0.19,-8.14,-3.9,32.14
-0.84,-11.14,0.93,32.16
-0.25,-11.58,-1.31,32.14
-0.11,-9.48,-4.35,32.15
-0.72,-8.11,-6.05,32.14
-2.83,-7.61,-5.78,32.16
-0.54,-9.82,-3.03,32.09
0.44,-11.81,-1.08,32.13
-0.15,-11.35,-2.86,32.13
-0.79,-8.29,-7.02,32.16
-4.07,-7.13,-6.1,32.14
-1.69,-9.93,-2.99,32.15
0.17,-12.3,-2.64,32.15
-0.87,-10.74,-2.81,32.11
-1.57,-8.23,-6.7,32.15
-3.06,-6.08,-5.88,32.1
-3.21,-10.41,-2.84,32.13
-1.02,-11.19,-1.43,32.15
-1.63,-10.19,-3.25,32.11
-1.5,-7.94,-6.25,32.16
-2.67,-6.1,-5.52,32.18
-3.02,-10.93,-2.61,32.13
-0.73,-11.3,-1.67,32.14
0.2,-11.97,-1.17,32.16
-0.68,-10.73,-3.3,32.19
-0.87,-7.9,-6.13,32.14
-2.6,-7.97,-5.91,32.13
-1.4,-8.26,-3.34,32.12
0.89,-12.0,-1.81,32.11
0.42,-11.75,-2.17,32.17
-0.79,-8.89,-5.21,32.14
-2.86,-7.45,-6.98,32.19
-2.11,-8.31,-4.23,32.16
-0.36,-11.55,-2.1,32.17
-0.42,-11.64,-1.85,32.17
-0.94,-9.02,-5.38,32.13
-3.19,-6.98,-6.17,32.14
-2.59,-9.58,-3.67,32.11
-0.23,-11.47,-1.71,32.14
-1.07,-10.6,-2.61,32.14
-1.47,-8.93,-5.72,32.13
-2.62,-6.71,-6.38,32.13
0.06,-10.75,-2.46,32.13
-1.31,-10.63,-2.77,32.11
-0.92,-7.41,-6.78,32.12
-4.17,-8.34,-5.32,32.17
-2.61,-9.71,-3.13,32.13
-1.11,-11.33,-2.35,32.15
-2.49,-9.99,-3.2,32.1
-2.49,-6.08,-6.63,32.13
-2.74,-7.76,-5.5,32.16
-2.42,-10.42,-1.88,32.14
-1.35,-9.7,-1.24,32.14
-2.3,-9.85,-3.94,32.15
-1.15,-6.67,-6.53,32.15
-3.53,-7.38,-4.65,32.1
-2.84,-10.82,-1.85,32.14
-0.56,-11.05,-1.7,32.1
-2.35,-8.83,-4.51,32.12
-1.82,-5.99,-6.22,32.12
-2.68,-6.63,-5.07,32.12
1.18,-12.07,-1.25,32.13
-0.4,-12.14,0.41,32.12
0.16,-11.04,-3.28,32.17
-1.55,-8.02,-6.01,32.14
-1.99,-7.05,-4.19,32.14
-0.11,-11.3,-2.38,32.1
0.47,-12.12,-0.94,32.14
0.28,-10.72,-3.53,32.14
-1.77,-7.31,-6.35,32.11
-2.5,-7.9,-4.69,32.11
-0.21,-11.07,-2.58,32.19
0.4,-11.54,-1.83,32.13
-0.53,-10.7,-3.74,32.12
-1.91,-7.13,-6.29,32.14
-3.53,-7.97,-4.64,32.09
-1.1,-10.59,-2.45,32.14
-0.02,-11.55,-1.71,32.1
-1.39,-10.0,-3.98,32.12
-1.29,-7.52,-6.39,32.08
-3.68,-8.8,-4.32,32.15
-3.48,-9.22,-3.72,32.16
-1.14,-10.56,-2.29,32.11
-1.49,-12.07,-3.85,32.14
-1.94,-6.7,-5.03,32.12
-2.75,-7.73,-6.94,32.16
-3.85,-8.44,-2.9,32.11
-1.24,-11.59,-2.18,32.15
-1.54,-9.95,-3.13,32.1
-1.53,-6.91,-5.65,32.12
-2.04,-6.55,-7.14,32.16
-3.71,-8.94,-1.56,32.16
-1.33,-11.43,-2.31,32.14
-0.49,-9.83,-2.38,32.14
-2.61,-7.87,-4.92,32.09
-2.27,-4.94,-6.45,32.16
-1.93,-9.77,-2.28,32.13
-1.19,-11.48,-1.14,32.13
-0.86,-9.36,-1.64,32.11
-1.7,-7.32,-4.52,32.12
-0.7,-5.62,-5.96,32.08
-0.77,-8.64,-1.7,32.14
-0.64,-11.89,-0.65,32.12
0.26,-10.04,-2.44,32.1
-1.23,-6.78,-4.62,32.15
-0.7,-7.08,-5.65,32.17
-0.89,-8.25,-0.92,32.07
0.72,-12.97,0.08,32.1
-0.13,-11.31,-1.87,32.14
-1.69,-8.22,-2.95,32.14
-1.13,-7.31,-6.0,32.17
1.22,-8.74,-1.87,32.17
0.08,-11.48,-0.43,32.07
-0.24,-11.37,-1.18,32.09
-0.58,-8.66,-3.97,32.09
-0.34,-7.83,-4.88,32.13
-0.81,-7.23,-4.41,32.14
-0.86,-10.8,0.09,32.12
-0.95,-9.83,-2.14,32.11
-2.42,-10.58,-2.12,32.13
-2.0,-7.56,-5.16,32.15
-3.01,-6.54,-6.17,32.12
-2.95,-9.92,-3.34,32.11
-0.7,-10.72,-1.45,32.11
-1.86,-10.07,-2.91,32.11
-2.15,-7.23,-5.22,32.18
-1.61,-5.9,-6.09,32.08
-3.24,-9.94,-1.6,32.11
0.3,-10.17,-1.68,32.15
-1.15,-9.64,-2.82,32.13
-2.3,-6.67,-4.43,32.1
-1.63,-5.51,-6.62,32.11
-2.24,-10.16,-1.54,32.13
-0.92,-10.81,-1.51,32.16
-1.46,-10.07,-2.57,32.14
-0.9,-7.72,-4.47,32.11
-0.68,-6.21,-5.69,32.1
-1.07,-9.32,-1.4,32.11
-0.27,-12.08,-0.62,32.12
-0.09,-10.91,-2.81,32.11
-1.75,-7.02,-4.74,32.12
-0.62,-6.51,-5.29,32.14
-1.37,-8.94,-1.72,32.11
-1.33,-11.44,0.89,32.09
0.74,-11.48,-3.5,32.1
-1.16,-7.15,-4.72,32.14
-0.51,-7.21,-3.9,32.07
0.63,-10.73,-1.88,32.11
0.2,-11.74,-0.56,32.15
-0.26,-10.41,-4.27,32.12
-0.68,-7.38,-5.54,32.1
-0.73,-6.53,-4.13,32.07
-0.69,-10.7,-1.82,32.1
-0.37,-11.64,-0.54,32.16
0.48,-11.34,-3.86,32.08
-1.12,-8.72,-4.17,32.1
-0.83,-6.94,-5.24,32.12
-0.69,-6.59,-4.25,32.08
-0.8,-10.85,-0.02,32.1
0.62,-12.59,-1.07,32.13
-1.06,-9.29,-3.37,32.12
0.06,-7.48,-5.02,32.12
1.08,-8.13,-4.19,32.11
-0.11,-10.44,0.41,32.12
0.5,-13.15,-0.76,32.15
-1.41,-10.07,-4.15,32.12
-1.73,-7.33,-5.71,32.11
1.11,-8.38,-5.05,32.09
-0.2,-10.6,-1.46,32.14
-0.54,-12.55,-0.25,32.12
-0.64,-10.69,-4.98,32.11
-0.6,-6.91,-5.97,32.11
-0.78,-8.55,-4.28,32.13
-0.4,-11.33,-1.14,32.13
0.76,-11.75,-1.65,32.08
-1.14,-10.34,-4.84,32.14
-2.53,-6.89,-6.35,32.12
-1.93,-8.57,-3.88,32.09
-0.1,-11.32,-2.23,32.15
-0.64,-11.87,-1.55,32.11
-1.97,-9.94,-4.9,32.16
-1.96,-6.38,-7.0,32.11
-1.89,-9.27,-4.61,32.07
0.19,-11.09,-2.65,32.12
-1.15,-11.17,-1.49,32.16
-1.87,-9.45,-4.51,32.14
-2.68,-6.03,-7.35,32.12
-3.69,-8.92,-4.23,32.14
-0.13,-10.54,-2.9,32.12
-1.96,-11.05,-2.1,32.16
-2.48,-8.02,-4.23,32.09
-2.6,-5.98,-7.46,32.1
-3.03,-8.85,-3.3,32.06
0.15,-10.0,-1.32,32.1
-0.16,-12.19,-0.31,32.13
-0.19,-11.03,-3.28,32.13
-1.49,-7.76,-5.97,32.13
-0.37,-6.32,-5.04,32.1
0.54,-10.57,-2.43,32.09
-0.87,-12.78,-0.58,32.09
-1.87,-10.01,-2.23,32.15
-1.51,-8.69,-6.47,32.16
-1.6,-6.65,-5.36,32.09
-0.82,-10.61,-1.42,32.09
0.42,-11.54,-0.7,32.12
-0.21,-12.93,-0.94,32.09
-2.77,-8.32,-3.9,32.1
-1.13,-7.95,-5.84,32.17
1.92,-8.66,-4.67,32.09
-1.05,-10.48,0.13,32.1
-1.29,-12.91,-1.56,32.14
-0.32,-8.45,-6.11,32.14
-1.05,-7.24,-5.39,32.12
0.18,-9.19,-4.2,32.08
0.16,-10.79,-1.11,32.12
-0.75,-11.71,-1.26,32.07
-0.89,-9.11,-5.51,32.08
-2.13,-7.36,-6.45,32.12
-0.82,-8.91,-3.28,32.16
0.62,-11.72,-0.72,32.08
-0.2,-12.25,-0.61,32.14
-0.78,-8.86,-5.55,32.12
-2.44,-6.94,-5.98,32.13
-0.75,-10.55,-3.07,32.12
0.56,-11.74,-1.41,32.1
-1.58,-11.24,-1.76,32.07
-1.37,-8.87,-4.73,32.11
-2.42,-6.49,-5.98,32.09
-2.54,-10.24,-3.14,32.07
-0.44,-11.07,-1.67,32.07
-2.42,-11.21,-1.91,32.06
-1.56,-7.33,-2.89,32.09
-2.98,-8.79,-2.26,32.1
-1.24,-11.7,-1.02,32.07
-1.31,-9.75,-2.03,32.09
-2.01,-6.05,-4.93,32.07
-0.75,-5.07,-6.21,32.09
-1.52,-9.69,-1.26,32.12
-0.95,-11.86,-0.44,32.1
0.28,-10.59,-2.93,32.12
-0.73,-6.28,-4.35,32.09
-1.24,-5.77,-4.85,32.11
-1.71,-10.11,-1.31,32.12
0.45,-11.53,0.26,32.14
-0.94,-11.72,-1.8,32.12
-1.03,-5.96,-4.93,32.12
0.59,-6.74,-5.85,32.12
0.57,-9.73,-1.12,32.09
0.6,-12.62,-0.52,32.12
-1.13,-11.6,-2.94,32.11
-2.72,-6.32,-3.6,32.05
-2.42,-5.99,-6.41,32.13
-2.12,-8.53,-3.09,32.15
-1.18,-10.81,-1.06,32.09
-0.55,-10.2,-1.71,32.07
0.13,-7.9,-3.73,32.1
-0.45,-5.0,-5.87,32.11
-1.55,-8.09,-3.14,32.08
-0.36,-11.72,-0.85,32.09
-0.2,-11.0,-0.63,32.1
-0.49,-8.51,-4.31,32.1
0.5,-5.88,-7.26,32.12
-1.93,-8.09,-2.63,32.08
-0.93,-11.42,-0.6,32.13
-1.18,-11.3,-2.56,32.06
-1.47,-7.24,-5.07,32.07
-1.23,-5.87,-7.02,32.1
-1.14,-7.98,-2.83,32.07
-0.5,-12.61,0.73,32.16
-0.74,-10.93,-2.13,32.13
-0.97,-7.27,-4.35,32.08
0.53,-6.83,-5.8,32.12
-0.76,-8.51,-1.87,32.12
0.25,-12.5,-0.21,32.09
-0.04,-10.99,-4.12,32.1
-1.1,-7.92,-4.89,32.08
-0.72,-7.32,-4.92,32.08
0.41,-9.51,-1.65,32.1
-0.63,-12.85,0.02,32.09
-1.28,-10.22,-2.93,32.08
-1.43,-8.83,-6.23,32.13
-0.74,-6.47,-4.74,32.12
-0.28,-10.25,-2.13,32.11
-0.65,-12.91,0.13,32.11
-1.28,-12.11,-2.16,32.08
-1.63,-8.25,-6.27,32.08
-0.89,-7.15,-5.65,32.13
0.26,-9.82,-1.78,32.12
0.06,-9.38,-4.72,32.12
0.54,-11.65,-0.73,32.09
-1.96,-11.38,-1.6,32.09
-1.23,-8.58,-6.68,32.08
-2.99,-6.4,-7.52,32.06
-1.8,-9.36,-4.03,32.12
-0.27,-12.41,-0.44,32.1
-2.07,-11.21,-1.78,32.09
-2.17,-7.5,-6.13,32.07
-1.63,-7.49,-6.85,32.08
-1.85,-10.05,-3.06,32.1
-1.67,-10.69,-1.55,32.11
-0.19,-11.66,-1.93,32.11
-1.26,-9.57,-3.74,32.08
-2.47,-6.91,-7.1,32.06
-3.65,-7.58,-5.37,32.09
-1.46,-9.6,-2.28,32.09
-2.57,-11.92,-1.02,32.07
-3.15,-8.71,-2.34,32.1
-2.26,-6.23,-8.46,32.13
0.48,-12.44,-1.65,32.08
-0.91,-7.92,-4.44,32.09
-1.75,-6.75,-4.68,32.07
-0.67,-5.84,-5.35,32.13
-1.23,-9.85,-1.48,32.09
-0.24,-11.87,-1.73,32.12
-0.94,-9.56,-3.26,32.09
-1.13,-5.7,-5.43,32.12
-0.83,-5.77,-4.5,32.12
-3.35,-11.07,-0.17,32.12
-0.35,-11.28,-0.93,32.11
-1.2,-8.7,-3.65,32.06
-1.83,-5.81,-5.25,32.09
-0.2,-6.92,-4.63,32.09
-1.39,-10.48,-0.05,32.06
-0.54,-12.36,-0.96,32.08
-0.79,-10.18,-3.93,32.09
-1.24,-6.87,-5.56,32.11
0.7,-7.34,-4.98,32.09
0.89,-10.39,-1.37,32.09
0.19,-12.12,-0.93,32.09
-1.96,-9.91,-3.91,32.11
-0.64,-7.43,-6.02,32.04
1.87,-8.59,-4.46,32.08
0.06,-11.25,-0.2,32.11
-1.75,-12.14,-0.47,32.09
-0.03,-10.94,-4.45,32.05
-1.61,-7.44,-4.98,32.12
-1.35,-7.9,-4.06,32.1
0.75,-10.59,-1.95,32.09
-1.33,-12.91,-0.31,32.1
-1.46,-9.85,-3.21,32.09
-2.74,-8.88,-5.31,32.06
0.1,-7.5,-4.89,32.11
0.44,-10.69,-1.24,32.04
-1.3,-11.58,-0.12,32.06
-0.54,-9.45,-4.1,32.04
-2.55,-7.64,-6.58,32.09
-1.15,-11.08,-0.54,32.14
-1.55,-10.98,-2.6,32.07
-1.82,-6.7,-7.47,32.09
-3.49,-8.13,-6.1,32.09
-0.36,-11.57,-3.03,32.07
0.51,-11.8,-1.06,32.08
-1.0,-9.97,-2.86,32.05
-3.3,-6.73,-6.66,32.08
-3.91,-7.0,-6.39,32.13
-0.11,-10.73,-4.03,32.09
-1.27,-11.03,-1.33,32.06
-3.34,-8.48,-2.43,32.07
-2.85,-5.95,-8.22,32.08
-3.81,-6.57,-6.26,32.06
-1.79,-9.85,-3.08,32.11
-1.39,-10.44,-1.54,32.1
-3.91,-8.78,-2.33,32.1
-1.68,-5.87,-7.46,32.07
-3.16,-7.75,-6.24,32.03
-0.33,-11.42,-2.17,32.07
-2.87,-10.68,-1.31,32.09
-2.9,-7.27,-4.68,32.05
-2.39,-6.17,-8.5,32.09
-2.47,-8.93,-4.1,32.07
-1.26,-12.16,-1.19,32.1
-2.53,-10.05,-1.36,32.12
-1.78,-7.7,-5.91,32.08
-2.75,-5.53,-7.61,32.09
-2.77,-9.45,-2.51,32.06
-1.0,-11.5,-1.42,32.06
-1.86,-9.89,-1.65,32.15
-2.34,-6.63,-5.83,32.1
-2.42,-4.73,-6.58,32.04
-2.36,-9.49,-2.28,32.09
-1.38,-12.11,-1.07,32.08
-1.4,-10.3,-1.68,32.09
0.39,-6.96,-4.54,32.09
-1.18,-5.65,-6.34,32.08
-2.94,-9.26,-2.69,32.05
0.52,-11.63,-1.29,32.08
-0.54,-11.7,-0.96,32.08
-2.01,-8.51,-4.6,32.09
-2.88,-5.76,-7.19,32.05
-2.87,-9.68,-3.39,32.09
-0.63,-13.36,-2.16,32.07
-0.83,-10.42,-1.06,32.12
-1.83,-9.68,-3.78,32.1
-2.59,-5.26,-7.65,32.09
-3.59,-7.63,-5.84,32.09
-2.23,-11.77,-1.23,32.1
1.17,-12.38,-1.6,32.09
-1.65,-9.59,-4.06,32.05
-2.61,-4.19,-7.73,32.07
-2.76,-7.71,-5.09,32.07
-1.54,-11.62,-0.13,32.05
0.26,-11.85,-1.36,32.07
-2.28,-8.14,-3.51,32.06
-1.65,-5.92,-6.94,32.1
-2.52,-7.77,-4.49,32.09
-2.22,-11.47,-0.29,32.09
-0.6,-11.14,-1.4,32.09
-0.74,-8.19,-3.7,32.11
0.48,-6.98,-5.85,32.09
-2.24,-7.22,-4.21,32.06
-1.19,-12.01,0.03,32.08
0.52,-12.16,-3.18,32.08
-2.39,-7.28,-3.57,32.07
-1.98,-6.03,-5.17,32.13
-0.88,-7.28,-3.5,32.04
-1.16,-11.86,0.15,32.06
-0.75,-10.99,-1.38,32.13
-0.09,-8.66,-3.75,32.06
-0.14,-6.42,-5.5,32.03
-1.26,-7.1,-2.96,32.07
-0.15,-11.9,0.42,32.09
-0.07,-11.92,-1.31,32.05
-1.18,-8.38,-3.87,32.09
-0.31,-7.19,-5.41,32.09
0.64,-9.0,-3.21,32.06
-0.39,-12.42,0.34,32.1
-0.27,-11.73,-1.15,32.09
-0.65,-8.37,-4.86,32.11
-1.1,-6.37,-4.87,32.06
-0.23,-8.73,-2.92,32.1
0.69,-12.02,0.16,32.05
0.45,-12.02,-1.42,32.07
-2.6,-8.43,-4.38,32.09
-1.24,-7.12,-5.44,32.07
2.35,-9.28,-3.7,32.09
0.31,-11.71,0.45,32.07
-0.86,-11.77,-1.35,32.07
-1.53,-8.99,-6.26,32.09
-1.52,-8.06,-5.94,32.12
0.76,-9.22,-3.66,32.06
-0.6,-11.52,-0.74,32.07
-1.06,-11.0,0.8,32.02
-0.17,-13.15,-1.11,32.07
-0.98,-9.13,-1.87,32.12
-2.63,-7.3,-4.63,32.03
-1.09,-5.46,-6.32,32.07
-1.26,-9.14,-2.34,32.13
-1.07,-11.45,-0.46,32.02
0.51,-11.39,-1.99,32.08
-0.73,-7.2,-4.54,32.05
-1.36,-5.92,-5.59,32.09
-1.46,-8.91,-1.85,32.1
-0.42,-12.02,-0.33,32.08
-0.39,-9.89,-2.37,32.07
-1.71,-7.16,-4.87,32.09
-0.53,-5.41,-4.76,32.04
-0.21,-10.13,-1.0,32.03
0.28,-12.9,0.16,32.08
-0.75,-10.2,-2.78,32.06
-0.55,-8.17,-5.74,32.08
-1.62,-6.59,-5.91,32.1
-1.94,-6.78,-5.03,32.12
-1.97,-11.13,-0.06,32.07
0.48,-12.03,-1.69,32.08
-1.23,-8.62,-3.08,32.05
-2.37,-6.41,-5.51,32.07
-1.96,-6.41,-4.84,32.08
-0.37,-11.95,-0.48,32.1
-0.34,-11.82,-1.39,32.09
-1.15,-7.93,-3.36,32.11
-1.15,-6.17,-5.18,32.07
-0.6,-6.78,-4.0,32.15
-0.43,-11.11,-0.02,32.08
0.26,-12.9,-0.67,32.06
-0.23,-9.22,-3.1,32.09
-1.41,-6.51,-5.35,32.05
-0.4,-7.49,-4.45,32.08
-0.37,-10.62,-0.09,32.04
0.24,-11.78,-1.49,32.11
-0.47,-9.16,-3.44,32.09
-0.57,-6.45,-5.33,32.09
0.57,-8.0,-4.27,32.05
0.51,-10.71,-0.42,32.07
0.47,-12.9,-0.58,32.05
-0.76,-9.79,-4.44,32.09
-2.11,-7.04,-5.73,32.08
0.62,-8.06,-4.49,32.09
0.75,-11.47,-0.73,32.09
0.11,-12.47,0.02,32.09
-1.11,-9.61,-5.05,32.08
-1.53,-7.83,-6.28,32.09
0.66,-8.57,-4.33,32.09
0.4,-9.22,-2.21,32.12
0.0,-11.77,-0.17,32.12
0.55,-11.99,-2.77,32.05
-1.79,-7.94,-5.69,32.1
-1.69,-7.26,-5.53,32.11
0.93,-9.45,-2.73,32.06
0.33,-11.85,-0.28,32.08
-1.31,-7.71,-7.2,32.11
-2.04,-7.46,-6.36,32.11
-1.08,-9.36,-4.65,32.05
0.29,-10.49,-1.87,32.11
-0.88,-11.6,-1.9,32.06
-1.8,-9.31,-5.11,32.08
-2.35,-6.32,-7.35,32.08
-2.21,-8.53,-4.37,32.14
-0.22,-11.9,-1.76,32.06
-1.83,-11.5,-1.48,32.06
-1.34,-7.92,-5.6,32.11
-2.99,-6.83,-7.45,32.05
-4.59,-7.81,-3.53,32.08
-0.47,-11.47,-2.27,32.08
-1.12,-10.91,-2.17,32.08
-1.78,-7.23,-4.33,32.07
-2.62,-7.02,-7.29,32.08
-2.73,-8.9,-2.63,32.09
-1.24,-11.78,-2.03,32.07
-2.05,-7.99,-5.45,32.05
0.35,-8.99,-2.87,32.07
0.41,-11.49,-0.63,32.04
-1.36,-11.88,-2.06,32.05
-0.87,-8.27,-6.71,32.09
-3.18,-7.55,-5.72,32.04
-0.59,-9.81,-3.29,32.07
-0.45,-11.6,-1.26,32.07
-0.83,-10.69,-2.42,32.04
-1.01,-8.22,-7.16,32.12
-3.99,-6.77,-5.89,32.08
-2.22,-9.69,-3.4,32.08
-0.49,-11.35,-1.2,32.04
-1.71,-11.29,-2.58,32.06
-2.39,-7.62,-6.73,32.06
-2.59,-7.13,-6.12,32.03
-2.75,-10.14,-3.12,32.07
-0.94,-11.27,-1.59,32.1
-2.14,-9.73,-3.02,32.11
-1.87,-7.13,-5.88,32.04
-3.4,-6.88,-6.05,32.06
-2.49,-9.52,-2.1,32.04
-0.48,-11.5,-2.56,32.08
-2.31,-8.79,-2.13,32.08
-1.4,-7.02,-4.82,32.05
-2.77,-6.54,-5.94,31.99
-2.47,-10.13,-1.88,32.03
-0.38,-11.92,-1.54,32.05
-0.87,-9.48,-2.79,32.09
-1.27,-6.32,-5.13,32.07
-0.51,-5.92,-5.21,32.08
-1.64,-9.21,-1.84,31.99
-1.6,-11.54,-0.91,32.08
-0.19,-10.22,-1.87,32.06
-0.6,-7.61,-4.83,32.04
-0.31,-6.79,-4.98,32.05
-2.17,-9.48,-1.29,32.03
0.17,-11.91,-1.26,32.02
-0.81,-9.06,-3.4,32.04
-1.23,-8.54,-5.02,32.02
-1.92,-6.4,-6.9,32.02
-3.97,-9.26,-4.16,32.04
-1.43,-10.81,-2.38,32.03
-1.16,-10.95,-1.84,32.03
-2.43,-8.26,-4.62,32.02
-1.91,-6.28,-7.25,32.02
-3.32,-9.05,-3.16,32.03
-1.26,-11.52,-2.75,31.99
0.28,-9.84,-2.68,31.96
-0.63,-8.42,-4.62,32.02
-2.07,-5.8,-5.99,32.01
-3.08,-8.95,-3.24,31.99
-2.07,-10.68,-2.57,31.97
0.27,-9.83,-1.89,32.04
-1.21,-7.76,-3.35,31.99
-0.83,-6.03,-5.36,31.99
-2.11,-8.93,-3.36,32.01
-2.55,-7.95,-5.43,31.97
-1.41,-8.76,-4.54,31.99
0.02,-10.72,-2.0,32.0
0.28,-11.66,-1.86,32.02
-1.46,-9.04,-4.56,31.99
-1.61,-7.4,-5.83,32.04
-2.0,-8.37,-5.13,31.99
-0.65,-9.19,-2.9,32.03
0.27,-12.05,-1.2,32.02
-0.02,-10.36,-2.53,32.01
-1.04,-7.92,-7.19,31.94
-3.5,-7.66,-5.16,31.98
-0.99,-10.72,-3.0,32.0
-0.5,-11.9,-0.79,32.01
-1.69,-9.91,-3.38,31.99
-1.88,-6.69,-7.34,31.96
-3.55,-7.7,-5.75,32.03
-1.56,-10.73,-2.57,32.03
0.06,-12.5,-1.33,32.01
-2.29,-9.31,-4.05,32.06
-1.79,-6.32,-7.13,32.03
-3.38,-7.59,-5.49,32.02
-2.72,-9.31,-2.08,32.01
-1.41,-11.11,-2.04,32.01
-1.94,-8.59,-3.35,31.99
-1.73,-6.28,-5.73,32.05
-2.48,-6.46,-5.46,31.97
-1.68,-11.06,-0.67,32.02
-0.98,-11.43,-0.82,32.02
-1.07,-8.28,-3.0,32.01
-0.63,-6.25,-5.41,32.05
-1.1,-5.94,-4.41,31.99
-0.99,-9.66,-0.2,31.98
0.4,-12.18,-1.08,32.03
-0.31,-9.14,-2.64,31.96
-0.81,-5.97,-5.64,32.06
-0.03,-6.94,-4.53,31.99
-0.84,-9.98,-0.29,32.02
-0.13,-12.31,-0.15,31.96
-0.58,-10.74,-3.45,32.02
-1.05,-6.53,-5.84,32.01
-0.65,-8.73,-4.6,31.99
0.1,-11.37,-0.63,32.01
1.08,-14.03,-0.78,32.07
0.05,-9.14,-5.4,32.0
-3.22,-6.54,-6.48,31.97
-2.09,-8.61,-4.36,32.02
0.5,-11.69,-2.0,32.0
-0.0,-11.84,-1.45,32.0
-1.06,-9.0,-4.46,31.99
-2.05,-7.51,-6.71,32.02
-2.7,-8.28,-4.81,32.01
-0.74,-10.85,-2.12,32.03
-0.16,-11.89,-1.43,32.02
-1.97,-8.87,-4.11,31.98
-1.69,-6.98,-7.85,32.02
-0.25,-12.48,-1.38,32.01
-0.24,-9.36,-2.63,31.99
-1.75,-5.44,-5.64,31.99
-0.84,-7.46,-4.1,31.97
-0.44,-11.83,-0.06,31.98
0.97,-12.5,-1.57,32.0
-0.95,-8.71,-4.21,31.99
-1.17,-6.86,-5.55,32.03
-0.39,-8.21,-4.33,31.98
0.27,-11.23,-0.24,31.98
0.08,-12.61,-1.5,32.01
-0.86,-8.91,-5.32,31.98
-2.06,-7.33,-5.48,32.03
-1.23,-9.07,-4.03,32.01
0.68,-11.26,-1.01,31.98
0.05,-12.78,-1.63,32.04
-0.94,-8.55,-5.69,32.0
-3.24,-6.61,-5.75,31.98
-1.41,-8.3,-4.89,31.98
-0.06,-10.86,-2.15,31.98
-0.37,-11.06,-1.5,31.98
-0.35,-9.07,-6.13,31.99
-2.72,-5.8,-6.16,32.0
-2.98,-8.81,-4.27,32.0
-0.24,-11.22,-1.81,31.98
-0.62,-11.16,-2.25,32.01
-1.11,-8.54,-5.12,31.97
-2.55,-6.11,-6.85,32.02
-3.55,-8.96,-3.96,32.04
-0.98,-11.04,-2.07,31.99
-1.54,-10.68,-2.3,32.03
-1.43,-7.46,-4.98,32.02
-2.07,-6.77,-7.06,32.01
-3.15,-8.55,-2.24,32.02
-0.78,-11.34,-1.72,32.02
-0.78,-11.02,-2.63,32.0
-1.62,-6.69,-4.85,31.99
-0.95,-6.13,-6.59,32.01
-2.31,-9.05,-3.15,31.99
-3.03,-9.83,-2.21,31.98
-0.34,-10.64,-1.69,31.98
-1.41,-10.73,-3.75,32.01
-1.77,-5.88,-4.86,31.99
-1.87,-7.88,-5.79,31.98
-0.98,-9.99,-0.38,32.0
-0.85,-11.52,-1.37,31.96
-1.39,-9.41,-2.84,32.03
-0.18,-6.2,-5.51,31.99
-0.34,-6.31,-4.5,31.99
-1.12,-9.39,-0.0,32.02
-0.19,-12.67,-0.53,31.95
0.04,-9.95,-2.46,31.99
-0.09,-6.53,-5.13,32.02
0.4,-6.74,-4.96,31.98
-0.73,-9.53,-0.24,31.96
1.2,-12.84,-0.28,32.03
-0.59,-9.6,-3.83,32.03
-1.08,-6.12,-4.83,31.97
-1.02,-8.41,-4.75,31.98
1.33,-10.73,-0.9,31.99
0.86,-13.07,-0.76,31.99
-1.0,-9.91,-4.16,32.0
-1.18,-7.69,-5.28,31.98
-0.88,-9.05,-4.43,32.02
0.62,-11.11,-2.65,31.97
0.61,-11.33,-1.73,32.02
-0.3,-10.27,-4.34,32.01
-2.23,-6.25,-5.4,32.02
-2.86,-9.15,-4.11,32.02
-0.9,-10.27,-2.89,31.98
-0.24,-12.12,-2.18,31.99
-2.03,-10.5,-3.33,31.99
-1.75,-7.21,-6.77,31.99
-3.74,-10.0,-4.73,31.99
-1.55,-10.65,-2.25,31.99
-0.99,-11.62,-3.07,31.99
-1.51,-7.42,-5.61,31.97
-0.12,-6.68,-4.72,31.98
-0.47,-11.29,-1.64,32.0
0.34,-12.45,-0.8,31.95
-0.48,-10.43,-4.06,32.02
-2.32,-6.85,-5.57,32.0
-0.42,-8.32,-4.9,31.96
0.28,-10.14,-1.88,31.98
0.64,-12.15,-1.01,32.01
-0.15,-9.76,-4.4,32.0
-1.54,-8.13,-4.86,31.98
-1.36,-8.56,-4.69,31.96
0.65,-10.24,-2.36,31.98
-0.22,-11.6,-1.45,31.96
-0.26,-9.8,-4.07,31.94
-3.07,-8.11,-6.24,32.0
-1.41,-8.85,-3.97,31.97
0.85,-10.87,-1.73,31.99
-0.41,-12.4,-1.36,31.98
-2.47,-9.39,-3.62,31.95
-0.88,-7.36,-6.92,31.95
-3.62,-8.52,-4.17,31.98
-1.49,-10.38,-1.73,32.02
-1.22,-11.59,-3.11,31.99
-1.2,-8.83,-4.23,31.98
-1.7,-6.83,-7.57,31.98
-4.36,-7.35,-3.54,31.97
-1.03,-10.71,-2.62,31.97
-0.43,-11.37,-2.24,32.01
-1.86,-7.84,-3.34,31.98
-1.68,-6.15,-6.8,31.96
-3.06,-7.19,-3.99,31.97
-2.31,-10.45,-1.67,31.95
-1.08,-10.92,-1.43,31.98
-1.16,-8.26,-3.82,31.97
-1.23,-5.88,-6.31,32.01
-2.86,-7.13,-3.57,32.01
-0.67,-11.9,-1.29,31.97
-1.43,-9.2,-2.11,31.97
-0.84,-12.21,-0.84,31.98
0.16,-10.66,-3.03,31.99
-1.57,-7.97,-4.9,31.95
-0.5,-7.45,-4.85,31.94
-0.09,-9.79,-2.08,31.97
-0.7,-12.17,-0.67,31.95
0.33,-13.01,-1.62,31.97
-0.42,-9.5,-3.85,31.96
-1.38,-7.49,-5.52,32.01
-0.09,-9.38,-2.73,31.96
0.7,-10.96,-0.38,31.99
0.41,-12.49,-1.16,31.96
-1.4,-8.42,-5.98,31.96
-1.28,-7.69,-5.89,32.0
0.23,-8.54,-4.2,31.94
-0.37,-11.33,-1.88,31.97
-0.62,-11.89,-2.18,31.95
-0.78,-9.31,-5.65,32.01
-2.89,-8.94,-3.24,31.96
-1.28,-10.34,-3.72,31.97
-1.13,-10.83,-2.1,31.93
-0.35,-10.3,-2.83,31.96
-1.09,-7.78,-6.27,31.97
-3.69,-8.34,-4.55,32.0
-1.67,-10.69,-3.14,32.0
0.25,-11.2,-1.75,31.98
-1.04,-9.15,-3.15,31.96
-0.58,-6.75,-6.0,31.97
-2.75,-7.23,-4.49,32.01
-2.86,-10.2,-2.73,31.98
-1.47,-11.45,-2.35,31.94
-2.86,-8.71,-3.05,31.96
-1.4,-7.17,-5.67,31.9
-3.28,-7.18,-4.72,31.97
-2.01,-10.25,-1.37,31.97
-0.49,-11.66,-1.92,32.02
-1.66,-8.8,-3.32,31.99
-1.11,-6.55,-5.42,31.95
-0.62,-7.05,-4.59,31.97
-0.06,-10.72,-0.84,31.94
0.6,-11.63,-1.71,31.99
-0.04,-8.66,-4.7,31.95
-0.79,-6.78,-5.23,31.98
0.17,-8.08,-3.82,32.0
0.9,-10.91,-0.71,31.96
0.28,-11.96,-1.16,31.92
-0.66,-9.8,-4.92,31.95
-1.2,-7.32,-5.32,31.95
0.31,-8.79,-3.65,31.98
0.5,-11.54,-1.16,31.97
0.19,-12.13,-1.33,31.95
0.07,-9.79,-4.92,31.98
-1.93,-7.26,-5.34,32.0
-0.32,-9.28,-4.18,31.96
0.54,-11.49,-1.52,31.96
-0.14,-12.18,-1.97,31.96
-0.46,-10.3,-5.87,32.02
-2.74,-7.3,-6.33,32.01
-2.5,-8.81,-4.24,31.99
-1.12,-11.69,-1.96,31.94
-1.12,-12.29,-1.78,31.98
-1.52,-8.75,-5.64,31.97
-1.76,-7.24,-7.13,31.97
-3.62,-8.52,-3.79,31.94
-1.57,-11.44,-1.81,31.99
-1.59,-10.71,-2.24,32.0
-0.48,-8.55,-5.14,31.97
-3.05,-5.76,-6.65,31.95
-3.04,-8.21,-2.81,31.96
-0.7,-12.12,-1.99,31.97
-1.47,-10.59,-1.65,31.97
-1.91,-7.58,-5.01,32.01
-0.86,-6.24,-6.86,31.97
-2.79,-7.54,-3.09,31.97
-0.76,-11.31,-1.29,31.99
-0.03,-11.73,-2.35,31.97
-1.12,-5.71,-5.92,31.96
-1.72,-7.77,-2.85,31.96
-0.49,-11.32,0.04,31.96
-0.82,-10.76,-2.54,31.95
-0.69,-7.65,-4.74,31.95
-0.66,-6.3,-5.32,31.97
-0.73,-8.49,-2.0,31.95
0.09,-12.49,-0.39,31.96
0.3,-11.56,-2.03,31.99
-0.6,-8.51,-5.34,31.93
-0.33,-6.85,-5.09,31.97
0.57,-9.52,-2.53,31.95
0.81,-12.85,-0.07,31.94
-0.07,-11.41,-2.79,31.99
0.09,-7.75,-7.17,31.94
-2.55,-7.08,-5.1,31.93
-1.07,-9.79,-3.3,31.93
0.81,-12.69,-1.64,31.97
-1.06,-11.14,-3.19,31.98
-0.79,-6.31,-5.45,31.98
-0.4,-7.73,-3.67,31.96
-0.79,-11.41,-0.07,31.94
-0.5,-11.47,-1.71,32.0
-0.65,-9.05,-4.56,31.98
-0.65,-7.07,-6.12,31.97
-0.59,-7.45,-3.28,31.93
0.06,-11.48,0.14,31.98
-0.27,-13.16,-0.84,31.96
-0.25,-8.02,-4.83,31.94
-1.21,-7.69,-5.98,31.97
-0.5,-7.32,-4.39,31.97
0.61,-11.18,-1.1,31.98
1.0,-12.63,-0.13,31.96
0.06,-10.81,-2.92,31.98
-1.17,-8.54,-6.43,31.96
-2.44,-8.78,-4.42,31.96
-0.5,-10.46,-3.24,31.96
-0.22,-11.65,-1.94,31.97
-3.09,-7.3,-6.24,31.94
-3.63,-8.05,-4.3,31.95
-0.52,-11.31,-2.61,31.98
-0.48,-12.14,-2.03,31.92
-1.76,-9.43,-3.43,31.95
-1.95,-7.51,-7.24,31.97
-3.73,-7.61,-5.11,31.93
-2.4,-10.25,-2.7,31.92
-0.87,-10.69,-2.14,31.94
-1.86,-8.9,-4.25,31.93
-2.19,-5.86,-6.65,31.96
-3.17,-7.68,-5.17,31.93
-1.98,-10.52,-0.94,31.96
-0.62,-11.15,-1.74,31.95
-2.01,-8.65,-4.13,31.97
-0.98,-5.66,-6.57,31.91
-1.98,-7.69,-4.17,31.94
-1.14,-11.22,-0.19,31.94
-0.13,-11.18,-1.88,31.92
-2.34,-10.78,-3.16,31.95
-0.99,-10.81,-1.12,31.93
-1.31,-9.61,-3.21,31.96
-1.61,-6.97,-6.51,31.95
-2.7,-5.66,-6.18,31.94
-2.49,-9.72,-2.6,31.99
-0.85,-11.0,-1.88,31.92
-0.91,-9.42,-3.05,31.97
-1.86,-6.78,-5.99,31.96
-2.43,-6.03,-5.72,31.94
-2.16,-10.71,-1.83,31.93
-0.11,-11.3,-1.8,31.94
-0.55,-9.96,-3.09,31.96
-1.23,-6.22,-5.34,31.95
-0.89,-6.33,-5.2,31.92
-1.1,-10.15,-1.02,31.92
0.17,-12.33,-1.47,31.93
-0.34,-8.93,-3.04,31.96
-1.48,-6.63,-5.26,31.96
-0.4,-7.6,-3.88,31.97
-0.28,-8.12,-3.41,31.94
-0.23,-12.38,-0.0,31.98
-0.48,-11.7,-1.98,31.94
-0.32,-9.44,-5.23,31.99
-0.63,-7.34,-5.09,31.95
0.67,-8.71,-4.05,31.95
-0.19,-11.72,-0.04,31.97
0.29,-12.34,-2.02,31.94
-1.26,-9.42,-5.19,31.92
-2.05,-7.3,-6.14,31.96
-0.96,-8.46,-4.02,31.97
0.59,-11.83,-0.81,31.99
-0.44,-12.33,-1.23,31.98
-1.1,-8.34,-5.09,31.93
-2.53,-7.47,-6.06,31.92
0.06,-9.48,-3.81,31.93
-0.38,-10.96,-1.6,31.94
1.15,-12.15,-2.14,31.74
-0.04,-11.11,-1.25,31.76
-1.76,-10.3,-1.55,31.74
-2.3,-7.04,-7.41,31.78
-3.77,-6.52,-6.29,31.79
0.72,-10.98,-3.32,31.74
-0.64,-12.02,-0.29,31.78
-1.66,-9.43,-3.17,31.77
-2.23,-4.75,-9.68,31.78
-2.44,-6.9,-5.95,31.75
0.14,-11.81,-2.52,31.78
-0.77,-12.21,0.73,31.73
-0.62,-10.77,-2.12,31.76
-0.79,-5.25,-7.47,31.77
-3.44,-6.65,-6.12,31.83
-0.46,-11.82,-2.83,31.75
-0.78,-11.11,-0.16,31.76
-0.68,-12.73,-0.81,31.74
-1.74,-7.69,-4.64,31.74
-3.49,-5.95,-6.2,31.74
-1.19,-8.79,-0.56,31.76
-1.93,-7.89,-2.84,31.77
-1.23,-6.76,-6.54,31.74
-2.51,-8.94,-4.51,31.74
0.68,-11.6,-3.24,31.74
0.43,-9.6,-2.18,31.77
-3.67,-9.49,-2.83,31.76
-3.03,-5.34,-7.53,31.77
-1.1,-8.99,-7.76,31.75
0.18,-9.96,-2.28,31.78
-1.66,-10.19,-0.37,31.75
-2.23,-10.24,-3.24,31.81
-2.28,-5.12,-7.44,31.73
-3.1,-7.87,-5.98,31.72
0.87,-11.94,-2.33,31.75
-1.48,-11.04,-0.24,31.77
-2.49,-8.99,-2.33,31.77
-2.65,-4.52,-8.54,31.77
-3.76,-7.97,-5.3,31.79
-0.48,-9.73,-1.11,31.78
0.82,-6.92,-4.57,31.78
-2.3,-5.49,-6.32,31.78
-1.69,-10.78,-2.27,31.78
-0.66,-12.54,-1.93,31.72
-1.26,-9.8,-1.16,31.77
-1.12,-6.76,-5.27,31.79
-3.65,-4.55,-7.09,31.78
-2.26,-10.09,-1.81,31.73
-1.47,-12.13,-2.32,31.79
-2.92,-10.08,-1.91,31.76
-0.4,-6.33,-5.22,31.79
-1.5,-5.59,-6.34,31.75
-1.21,-12.39,-1.81,31.74
-0.86,-11.9,-1.3,31.8
0.24,-10.09,-1.22,31.77
0.04,-5.92,-7.09,31.73
-3.33,-3.85,-7.08,31.76
-2.76,-10.82,-2.89,31.76
-2.29,-7.26,-7.18,31.76
-1.23,-6.69,-5.78,31.75
0.1,-10.81,-3.9,31.74
-1.51,-13.17,-0.48,31.75
-1.19,-11.51,-3.62,31.73
-1.36,-8.99,-6.99,31.75
-1.0,-5.89,-7.36,31.79
-0.71,-10.53,-4.68,31.75
0.18,-12.83,-1.26,31.75
-0.04,-10.46,-2.72,31.77
-2.16,-8.05,-7.73,31.78
-0.12,-6.65,-6.27,31.74
0.23,-10.29,-3.58,31.74
-1.06,-12.39,-1.19,31.77
-0.56,-11.11,-2.16,31.77
-3.97,-7.19,-6.54,31.73
-2.35,-8.05,-4.84,31.75
-0.2,-10.96,-2.91,31.73
-0.93,-11.14,-0.65,31.73
-2.38,-11.35,-2.87,31.76
-3.7,-6.11,-8.26,31.77
-2.02,-8.02,-5.1,31.8
-0.26,-10.61,-2.84,31.76
-0.48,-11.23,0.35,31.77
-2.44,-9.34,-4.38,31.76
-2.93,-6.52,-6.36,31.78
-0.91,-10.47,-3.07,31.72
0.57,-10.13,-1.34,31.75
-2.43,-12.41,-0.94,31.75
-2.33,-8.82,-3.39,31.75
-3.03,-7.44,-5.97,31.74
-1.45,-8.84,-5.02,31.73
0.51,-11.16,-2.17,31.78
-1.83,-11.78,-0.4,31.71
-1.81,-9.69,-3.19,31.75
-3.28,-6.87,-7.76,31.74
-3.05,-8.31,-4.71,31.72
0.11,-9.98,-2.89,31.77
-2.4,-11.16,-0.59,31.75
0.37,-11.0,-1.11,31.77
-1.0,-8.32,-2.27,31.77
-1.57,-5.55,-6.0,31.76
-3.9,-6.42,-4.13,31.76
0.5,-11.7,-0.53,31.8
0.18,-11.85,-0.06,31.76
-3.34,-7.21,-1.93,31.77
-1.91,-7.65,-5.44,31.74
-2.42,-7.57,-3.58,31.77
-0.93,-11.2,-0.12,31.76
-1.34,-12.32,-1.78,31.76
-2.62,-9.07,-0.72,31.77
-1.97,-6.71,-4.71,31.77
-2.39,-5.87,-6.89,31.8
-1.53,-8.98,-2.66,31.8
0.41,-12.15,-1.37,31.74
-0.52,-10.37,-1.95,31.75
-0.51,-6.47,-5.04,31.75
-1.27,-10.58,-0.77,31.76
0.01,-13.06,0.41,31.74
-0.45,-10.46,-3.96,31.7
-1.75,-5.13,-5.51,31.78
-0.31,-7.07,-6.75,31.74
0.41,-11.37,-1.0,31.76
0.45,-12.46,0.57,31.75
-1.05,-9.4,-2.86,31.75
-0.78,-7.46,-4.83,31.77
0.73,-6.07,-6.74,31.8
1.24,-9.81,-0.32,31.74
1.1,-13.53,1.2,31.74
-2.34,-10.24,-2.8,31.74
-1.85,-7.02,-4.91,31.76
2.83,-8.18,-5.95,31.77
